time_s,gyr_x_rad_s,gyr_y_rad_s,gyr_z_rad_s,acc_x_m_s2,acc_y_m_s2,acc_z_m_s2,mag_x_nT,mag_y_nT,mag_z_nT
0,-0.000034,0.000088,0.000011,-0.006525,-0.000989,0.999978,0.448243,-0.006765,0.893886
0.01,-0.000094,0.000014,0.000085,0.000738,0.005309,0.999986,0.446561,0.002413,0.89475
0.02,-0.00003,-0.00011,0.000051,0.003464,0.00226,0.999991,0.443248,-0.002282,0.896396
0.03,0.000021,-0.000146,0.000014,0.006712,0.00176,0.999976,0.442619,0.003979,0.896701
0.04,-0.000205,-0.000141,-0.000107,-0.00551,-0.005619,0.999969,0.449433,0.002206,0.893311
0.05,-0.00006,-0.000139,0.000077,-0.004176,0.003073,0.999987,0.446735,0.00188,0.894664
0.06,-0.000026,-0.000045,-0.000166,0.006206,0.002939,0.999976,0.447519,0.000449,0.894274
0.07,-0.000086,-0.000033,0.000064,0.004772,-0.003406,0.999983,0.44676,-0.001335,0.894653
0.08,-0.000173,-0.00007,-0.000032,0.000235,-0.000125,1,0.448251,-0.004459,0.893897
0.09,-0.00011,0.000064,-0.000017,0.014223,0.002063,0.999897,0.45142,0.004114,0.892302
0.1,-0.000042,0.000048,0.000003,-0.00116,0.001641,0.999998,0.445757,0.000432,0.895154
0.11,-0.000049,-0.000019,0.000059,-0.00223,0.006749,0.999975,0.439662,-0.005611,0.898146
0.12,-0.000146,-0.000022,0.000172,0.002173,-0.004124,0.999989,0.448024,0.007405,0.893991
0.13,-0.000174,0.000046,0.000064,-0.000985,-0.003393,0.999994,0.446936,0.001252,0.894565
0.14,-0.000095,0.000146,0.00012,0.003328,0.003708,0.999988,0.44877,-0.001513,0.893646
0.15,-0.000144,-0.000022,0.000104,-0.005435,-0.00225,0.999983,0.442384,-0.002525,0.896822
0.16,-0.000056,0.000031,0.000048,0.011504,-0.003275,0.999928,0.448993,0.007534,0.893504
0.17,0.000019,0.000097,-0.000005,-0.007974,-0.004283,0.999959,0.444458,0.009928,0.895745
0.18,-0.000022,-0.000069,0.000065,-0.000593,-0.006104,0.999981,0.443356,0.010545,0.896283
0.19,-0.000143,-0.000079,0.000037,-0.00036,-0.001351,0.999999,0.449574,0.000303,0.893243
0.2,0.000039,0.000071,-0.000062,-0.001425,-0.006378,0.999979,0.448713,-0.008013,0.89364
0.21,-0.000109,0.000028,-0.00012,0.010948,0.000441,0.99994,0.448684,0.003976,0.893682
0.22,-0.00008,-0.000037,0.000163,-0.001064,-0.001178,0.999999,0.446367,0.006623,0.894826
0.23,0.000021,-0.000057,0.000021,-0.013559,-0.006392,0.999888,0.436293,-0.004633,0.899793
0.24,-0.000061,0.000104,0.000016,-0.001415,0.007238,0.999973,0.444997,0.006558,0.895508
0.25,-0.000066,0.000002,0.000043,0.003132,0.001954,0.999993,0.444554,-0.008391,0.895713
0.26,-0.000057,-0.000126,0.000053,0.007618,-0.00508,0.999958,0.44868,0.006143,0.893671
0.27,-0.000078,0.000073,0.000111,0.000732,0.001465,0.999999,0.437475,-0.003052,0.899225
0.28,-0.000042,0.00003,0.000024,0.002113,-0.008115,0.999965,0.452499,0.006258,0.891743
0.29,0.000052,-0.000029,0.000105,0.004226,-0.011536,0.999925,0.439998,0.007337,0.897969
0.3,-0.000152,0.000002,-0.000094,0.000926,-0.003195,0.999994,0.436865,0.003486,0.89952
0.31,-0.000217,-0.000055,-0.000025,0.010172,0.00247,0.999945,0.445948,0.000751,0.895058
0.32,-0.000025,0.000167,-0.000019,-0.00744,-0.006049,0.999954,0.445229,0.002206,0.895414
0.33,-0.000094,-0.000011,0.000097,0.005638,0.001389,0.999983,0.447446,0.004091,0.894301
0.34,-0.000055,-0.000047,0.000115,0.004362,0.000019,0.99999,0.4473,0.005259,0.894369
0.35,0.000006,-0.000119,0.000047,-0.004352,-0.003242,0.999985,0.438583,0.002852,0.898686
0.36,-0.000036,-0.000121,0.000076,-0.006015,0.008358,0.999947,0.436378,0.002456,0.89976
0.37,-0.000114,0.000056,0.00007,-0.002881,0.004907,0.999984,0.435043,0.002582,0.900406
0.38,-0.000032,-0.00008,0.000043,0.00525,0.00035,0.999986,0.442854,0.000226,0.896594
0.39,-0.000214,-0.000127,0.000085,-0.002884,-0.002106,0.999994,0.441431,-0.001813,0.897293
0.4,-0.000225,0.000045,-0.000099,-0.006455,0.001201,0.999978,0.449607,-0.000142,0.893227
0.41,0.000027,-0.000102,0.000122,0.001531,-0.003315,0.999993,0.448846,-0.00479,0.893596
0.42,-0.000028,-0.000163,0.000163,-0.013049,0.002031,0.999913,0.438325,-0.000556,0.898816
0.43,0.000086,-0.000034,0.00003,-0.000081,-0.003276,0.999995,0.436504,0.006911,0.899676
0.44,-0.000053,-0.000114,0.000149,-0.002178,0.002076,0.999995,0.438823,0.00152,0.898572
0.45,-0.000087,-0.000033,-0.000016,-0.001915,0.000354,0.999998,0.438823,-0.009269,0.898526
0.46,-0.000094,-0.00014,0.000163,-0.005807,-0.002503,0.99998,0.441345,0.000667,0.897337
0.47,-0.000053,0.000056,0.000055,0.001936,-0.00445,0.999988,0.441164,-0.002682,0.897422
0.48,-0.0001,-0.000057,0.000005,0.003203,-0.00016,0.999995,0.446032,0.001012,0.895017
0.49,-0.000039,-0.000061,0.000027,-0.000815,0.001977,0.999998,0.436466,0.008306,0.899682
0.5,-0.00016,-0.000099,0.000198,-0.005781,0.000977,0.999983,0.451226,0.000285,0.89241
0.51,-0.000098,-0.000121,0.000083,-0.001326,0.001321,0.999998,0.445457,-0.005059,0.895289
0.52,0.000083,-0.000156,0.000035,-0.00544,0.005854,0.999968,0.445544,-0.000664,0.89526
0.53,-0.000095,-0.000182,0.000118,-0.001852,0.005718,0.999982,0.446407,-0.00645,0.894807
0.54,-0.000041,-0.000022,-0.000012,-0.003374,-0.004359,0.999985,0.441201,-0.009256,0.897361
0.55,0,-0.000076,0.000041,-0.002289,-0.001797,0.999996,0.439756,0.008989,0.898072
0.56,-0.000136,-0.000135,0.00017,-0.005888,0.004315,0.999973,0.43996,-0.010113,0.89796
0.57,-0.000084,-0.000003,0.000051,-0.005518,0.004575,0.999974,0.44333,-0.000758,0.896358
0.58,-0.000078,-0.000073,0.000109,0.007317,0.000589,0.999973,0.444234,-0.00343,0.895904
0.59,-0.000066,-0.000042,0.000056,0.005724,-0.000589,0.999983,0.445067,0.005557,0.89548
0.6,0.000063,0.000031,0.000087,-0.004469,0.001969,0.999988,0.444106,0.003543,0.895967
0.61,-0.000089,-0.000149,0.000136,0.00256,-0.010239,0.999944,0.442643,0.00463,0.896686
0.62,0.000045,-0.000041,0.000101,-0.007924,0.003316,0.999963,0.449127,-0.002591,0.893464
0.63,0.000029,0.000044,0.000134,-0.001505,-0.005981,0.999981,0.438709,-0.001907,0.898627
0.64,-0.000079,0.000104,-0.000055,-0.002335,-0.005736,0.999981,0.442414,-0.003774,0.896803
0.65,0.000036,0.000014,0.00013,-0.014681,-0.007707,0.999863,0.442308,-0.002061,0.896861
0.66,0.000125,0.000101,-0.000046,-0.003627,-0.010372,0.99994,0.446801,0.00163,0.894632
0.67,-0.000187,0.000043,-0.000035,0.005117,-0.000391,0.999987,0.448079,0.001976,0.893992
0.68,-0.000041,0.000045,-0.00009,-0.008101,0.002287,0.999965,0.44615,-0.001862,0.894956
0.69,-0.000224,-0.000006,0.000057,0.00303,0.00509,0.999982,0.440907,0.0042,0.897543
0.7,-0.000061,-0.000025,-0.000021,-0.010801,-0.004845,0.99993,0.439763,0.003028,0.898109
0.71,-0.000172,-0.000043,-0.000031,0.001314,0.007222,0.999973,0.440793,0.006461,0.897585
0.72,-0.000183,0.000015,0.000048,-0.00068,-0.001005,0.999999,0.440827,-0.013202,0.897495
0.73,-0.000004,-0.000115,-0.000004,-0.003375,0.004874,0.999982,0.444693,-0.000498,0.895683
0.74,-0.000127,-0.000106,0.000071,-0.00281,0.001558,0.999995,0.443119,-0.00044,0.896463
0.75,-0.000108,0.000002,0.000083,-0.005569,0.001391,0.999984,0.448125,0.003417,0.893964
0.76,0.000137,-0.00015,0.000131,-0.003607,0.00655,0.999972,0.439451,0.000395,0.898266
0.77,-0.000047,-0.00003,-0.000073,0.00556,0.004614,0.999974,0.44188,-0.000691,0.897074
0.78,-0.00008,0.000036,0.000046,-0.001573,-0.003427,0.999993,0.43584,0.003728,0.900017
0.79,-0.000032,-0.000054,0.000154,0.000991,0.00708,0.999974,0.437547,-0.000027,0.899196
0.8,-0.000041,-0.000221,-0.000007,0.001716,0.0085,0.999962,0.446398,0.006315,0.894812
0.81,-0.000211,-0.000312,0.000007,0.002252,0.008123,0.999964,0.443174,0.00536,0.896419
0.82,0.000077,-0.000025,-0.000049,0.001962,0.003779,0.999991,0.440931,0.010868,0.897475
0.83,-0.000122,0.00007,0.000067,-0.005758,-0.007542,0.999955,0.449753,-0.002625,0.893149
0.84,-0.000035,-0.000033,0.000057,0.005613,0.004961,0.999972,0.450538,-0.009779,0.892704
0.85,0.000031,0.00002,0.000072,0.004579,-0.003407,0.999984,0.447224,-0.003989,0.894413
0.86,-0.00013,0.000016,-0.000006,-0.002719,-0.001433,0.999995,0.442912,0.010879,0.896499
0.87,0.000056,-0.00014,0.000042,0.004611,-0.004104,0.999981,0.441207,-0.002062,0.897403
0.88,-0.00004,-0.000144,0.000204,0.003917,-0.008968,0.999952,0.447121,-0.004899,0.89446
0.89,0.000088,-0.000069,0.000121,0.006321,0.00422,0.999971,0.441948,-0.004536,0.897029
0.9,-0.000006,-0.000257,0.000075,-0.005723,-0.003658,0.999977,0.435594,-0.001034,0.900143
0.91,-0.000045,-0.000021,-0.00004,0.006352,0.002432,0.999977,0.450172,-0.007,0.892914
0.92,-0.000063,-0.000044,0.000157,0.001119,0.00392,0.999992,0.455226,0.004233,0.890366
0.93,-0.00001,-0.000029,0.000187,-0.005096,0.000074,0.999987,0.445845,0.001175,0.895109
0.94,-0.000088,-0.000063,-0.000105,0.005417,-0.004057,0.999977,0.447999,-0.000995,0.894034
0.95,0.000097,0.000055,0.000134,-0.003858,-0.002075,0.99999,0.439916,0.00752,0.898007
0.96,0.000019,-0.000019,0.000072,-0.001944,-0.002951,0.999994,0.450915,0.002141,0.892564
0.97,-0.000061,-0.000046,0.000058,-0.008157,-0.001071,0.999966,0.442339,-0.000575,0.896848
0.98,0.000092,0.00002,0.000049,0.003062,-0.004276,0.999986,0.440859,-0.003237,0.89757
0.99,-0.00009,-0.000084,0.000193,0.006306,0.002012,0.999978,0.439589,0.000993,0.898199
1,0.000005,-0.000023,0.000023,-0.00301,-0.00376,0.999988,0.452176,-0.003141,0.891923
1.01,-0.000136,-0.000035,0.00013,0.00499,-0.005934,0.99997,0.441143,0.00555,0.89742
1.02,-0.000074,-0.000049,0.000034,-0.00391,0.006342,0.999972,0.44056,-0.002494,0.89772
1.03,-0.00003,-0.000168,0.000033,0.001091,0.000493,0.999999,0.450425,-0.002983,0.892809
1.04,-0.000114,0.000049,-0.000014,-0.000945,-0.00718,0.999974,0.44951,0.00251,0.893272
1.05,0.000011,0.000104,0.000026,-0.000884,0.006117,0.999981,0.44427,-0.002946,0.895888
1.06,-0.000092,-0.000012,0.000053,0.002669,-0.006148,0.999978,0.444077,-0.006326,0.895967
1.07,-0.000126,0.000012,0.00023,0.001243,0.005105,0.999986,0.441928,0.00378,0.897043
1.08,-0.000062,-0.000046,-0.000038,0.006641,-0.001479,0.999977,0.442374,0.002314,0.896828
1.09,-0.000012,-0.000138,-0.000043,-0.003141,-0.002848,0.999991,0.442566,-0.010175,0.896678
1.1,0.000072,-0.000108,0.000148,-0.000709,0.004255,0.999991,0.432576,-0.000009,0.901598
1.11,0.000094,-0.000006,0.000102,0.005635,-0.003036,0.99998,0.44511,0.011105,0.895407
1.12,0.000131,-0.000046,0.000002,0.005721,-0.005956,0.999966,0.451855,0.009149,0.892045
1.13,-0.000158,-0.000025,0.000183,0.003364,-0.00414,0.999986,0.452793,-0.002458,0.891612
1.14,0.000044,-0.000111,-0.000021,-0.001636,0.003678,0.999992,0.443685,0.007757,0.896149
1.15,-0.000083,-0.000003,0.000036,-0.00222,0.00409,0.999989,0.447371,0.000321,0.894349
1.16,-0.000021,-0.000003,0.000028,0.004608,-0.003824,0.999982,0.446746,0.003773,0.894653
1.17,-0.000043,-0.000011,0.000046,0.001363,0.004081,0.999991,0.452526,0.00888,0.891707
1.18,0.000004,0.000135,0.000105,-0.002021,-0.004759,0.999987,0.445682,-0.006801,0.895166
1.19,-0.000035,-0.000176,0.000087,-0.000836,0.009449,0.999955,0.442397,0.003503,0.896813
1.2,-0.000209,-0.000152,0.000128,-0.001732,-0.00329,0.999993,0.447556,0.001344,0.894255
1.21,0.000022,-0.000042,-0.000096,0.006271,-0.002594,0.999977,0.443424,-0.001793,0.89631
1.22,-0.000072,-0.000088,0.000109,0.005822,0.000611,0.999983,0.446167,0.000462,0.89495
1.23,0.000158,-0.00001,-0.000014,-0.007675,0.001981,0.999969,0.444055,-0.002609,0.895996
1.24,-0.000142,-0.000034,0.000038,0.000685,0.00196,0.999998,0.438994,0.009192,0.898443
1.25,-0.00014,-0.000019,-0.000047,-0.001428,0.003302,0.999994,0.450651,-0.002841,0.892696
1.26,0.000058,0.000064,0.000148,-0.001462,0.003233,0.999994,0.441466,-0.003632,0.897271
1.27,-0.000081,0.000016,0.000042,0.006282,0.002228,0.999978,0.440438,0.011483,0.89771
1.28,-0.000073,-0.000058,-0.00006,-0.000923,0.006174,0.999981,0.446362,-0.002005,0.89485
1.29,-0.000165,0.000041,0.000037,-0.009029,-0.005162,0.999946,0.439308,0.006966,0.898309
1.3,-0.000021,0.000059,-0.000098,0.009026,0.003851,0.999952,0.444971,-0.00272,0.895541
1.31,-0.000108,-0.000013,0.000088,0.002916,0.000067,0.999996,0.444871,-0.00427,0.895585
1.32,-0.000072,0.000061,0.000072,0.001909,-0.010775,0.99994,0.437071,-0.002969,0.899422
1.33,-0.000145,-0.00011,0.000124,0.00272,-0.002243,0.999994,0.444898,0.008999,0.895536
1.34,0.000001,-0.000194,0.000171,-0.006105,0.001372,0.99998,0.446093,-0.002517,0.894983
1.35,0.000013,0.000089,0.00002,0.000901,0.008751,0.999961,0.439867,-0.00725,0.898034
1.36,-0.000065,-0.000127,0.000275,-0.00363,-0.003895,0.999986,0.444283,-0.006104,0.895866
1.37,-0.000055,0.00011,-0.000003,-0.001271,-0.004763,0.999988,0.44335,-0.013771,0.896243
1.38,-0.000025,-0.000175,0.00002,0.002051,0.008141,0.999965,0.442631,-0.005225,0.896689
1.39,0.000046,-0.000138,0.000147,-0.002232,-0.00255,0.999994,0.438755,-0.005907,0.898587
1.4,-0.00001,-0.00012,0.00001,0.002473,0.004139,0.999988,0.44396,-0.005437,0.89603
1.41,-0.00008,-0.000033,0.000007,-0.000681,0.006971,0.999975,0.442808,0.000625,0.896616
1.42,-0.000112,-0.000055,-0.000036,0.00253,-0.005501,0.999982,0.442017,0.000165,0.897007
1.43,-0.000152,-0.000033,0.000131,-0.010779,-0.006896,0.999918,0.446732,-0.006531,0.894644
1.44,-0.000173,-0.000028,-0.000003,0.006344,-0.001355,0.999979,0.434206,0.007361,0.900784
1.45,-0.000125,0.000046,0.000008,0.000474,0.005794,0.999983,0.443935,0.001553,0.896058
1.46,0.000091,-0.000097,0.000087,0.00468,-0.000317,0.999989,0.4414,0.0097,0.897258
1.47,-0.000059,-0.000094,0.000105,-0.004528,-0.001276,0.999989,0.442161,-0.002198,0.896933
1.48,-0.000053,0.000024,0.000049,0.002957,-0.001198,0.999995,0.445952,-0.003032,0.895052
1.49,-0.000134,-0.000038,0.000058,0.001081,-0.002234,0.999997,0.446799,0.000445,0.894634
1.5,0.000044,-0.000108,0.00005,-0.00127,0.003729,0.999992,0.44447,0.000204,0.895794
1.51,-0.00019,0.000028,-0.000041,0.006702,-0.001599,0.999976,0.442168,0.001739,0.896931
1.52,-0.000197,-0.000034,0.00015,-0.003653,-0.005513,0.999978,0.438716,-0.00428,0.898615
1.53,-0.000172,-0.000124,-0.000011,0.003075,-0.000306,0.999995,0.438086,-0.006461,0.89891
1.54,-0.000138,0.000004,-0.000017,0.004201,0.003842,0.999984,0.435149,-0.004357,0.900348
1.55,-0.000102,0.000022,-0.000012,-0.006883,0.009138,0.999935,0.443275,-0.002526,0.896382
1.56,-0.000002,-0.000113,-0.000052,0.00372,0.002475,0.99999,0.441455,-0.009482,0.897233
1.57,-0.0002,0.000134,0.000026,0.009247,0.003421,0.999951,0.442066,0.002504,0.896979
1.58,-0.000018,-0.000031,0.000068,-0.002109,-0.004908,0.999986,0.435016,-0.003988,0.900414
1.59,-0.000035,0.000138,-0.000037,0.002906,-0.002219,0.999993,0.441503,-0.001306,0.897259
1.6,-0.000175,-0.000117,-0.000063,0.002557,-0.001738,0.999995,0.434389,-0.002149,0.900723
1.61,0.000026,0.000043,-0.00003,-0.003204,-0.002598,0.999991,0.440077,0.001639,0.897959
1.62,-0.000161,-0.00006,0.000175,-0.003417,0.003088,0.999989,0.448135,0.002688,0.893962
1.63,-0.000285,0.000017,-0.00004,0.000052,-0.008392,0.999965,0.444741,-0.00334,0.895653
1.64,0.000051,-0.000123,0.000029,-0.005487,-0.006455,0.999964,0.43957,-0.01043,0.898148
1.65,-0.000171,-0.000114,0.000175,-0.004393,-0.006264,0.999971,0.443663,0.010087,0.896137
1.66,0.000032,-0.000064,-0.000022,-0.000483,-0.008379,0.999965,0.450641,-0.005454,0.892688
1.67,-0.000205,-0.000063,0.000051,0.003632,-0.002986,0.999989,0.442929,-0.0038,0.896549
1.68,-0.000047,-0.000037,-0.000044,-0.007835,-0.002781,0.999965,0.447514,-0.000987,0.894277
1.69,-0.000045,-0.000032,0.000166,0.000354,0.00579,0.999983,0.438818,-0.004386,0.898565
1.7,0.000123,-0.000041,-0.000013,-0.005082,0.001079,0.999987,0.445081,0.007503,0.895459
1.71,-0.000045,-0.000082,-0.000011,0.002247,-0.00168,0.999996,0.450979,-0.002368,0.892532
1.72,-0.000045,-0.00012,0.000107,-0.002883,0.002836,0.999992,0.442605,0.005309,0.896701
1.73,-0.000049,-0.000007,0.000038,-0.003133,0.005879,0.999978,0.440553,-0.005051,0.897713
1.74,-0.000103,-0.000111,0.000033,0.000012,0.00285,0.999996,0.445095,-0.005935,0.895464
1.75,-0.000087,-0.000008,0.000053,0.004513,-0.002907,0.999986,0.442039,-0.011334,0.896924
1.76,-0.000158,-0.000023,-0.000064,-0.007824,-0.006794,0.999946,0.439384,0.007137,0.898271
1.77,-0.000093,-0.000054,-0.000127,0.007196,0.008116,0.999941,0.444646,-0.011954,0.895627
1.78,-0.000031,-0.000016,0.00004,-0.00016,-0.002504,0.999997,0.444668,0.002967,0.895691
1.79,-0.000076,-0.000061,-0.000032,0.003598,-0.001881,0.999992,0.438945,-0.007594,0.898482
1.8,-0.000063,-0.000077,0.000062,0.001391,-0.002685,0.999995,0.44101,-0.005258,0.897487
1.81,-0.000145,-0.000008,0.000066,-0.000957,0.002274,0.999997,0.439895,-0.002845,0.898045
1.82,-0.000052,-0.000067,0.000102,0.014133,0.001039,0.9999,0.437504,-0.003379,0.89921
1.83,-0.000185,0.000011,0.000075,0.000394,0.005719,0.999984,0.440117,-0.00342,0.897934
1.84,-0.000015,0.000005,-0.000003,-0.001678,-0.003349,0.999993,0.446256,0.006541,0.894881
1.85,-0.000062,0.000027,0.000091,-0.005941,-0.002593,0.999979,0.441113,0.002183,0.897449
1.86,-0.000021,-0.000161,0.000101,-0.002842,0.008132,0.999963,0.443703,0.009781,0.89612
1.87,0.000063,0.000059,0.000074,-0.002218,-0.000174,0.999998,0.445935,-0.001347,0.895064
1.88,-0.000175,0.000054,0.000041,-0.008443,0.001162,0.999964,0.443896,0.011492,0.896005
1.89,-0.00026,0.000004,-0.000077,0.00501,-0.004544,0.999977,0.435021,0.005403,0.900404
1.9,-0.000153,-0.000084,0.000165,-0.001196,0.013994,0.999901,0.441141,0.003402,0.897431
1.91,-0.000072,-0.000005,0.000206,-0.001388,-0.001681,0.999998,0.438577,-0.001754,0.898692
1.92,0.0001,-0.000038,0.000033,-0.016514,-0.0012,0.999863,0.444586,0.000951,0.895736
1.93,-0.000149,-0.000089,0.000091,-0.002175,0.002459,0.999995,0.447382,0.003888,0.894334
1.94,-0.000005,-0.000019,0.00014,0.003463,-0.008464,0.999958,0.439925,-0.012304,0.89795
1.95,-0.000107,-0.000034,0.000117,0.004299,0.004017,0.999983,0.444642,0.007746,0.895675
1.96,0.000012,0.000065,0.000088,-0.000026,-0.002726,0.999996,0.441378,0.000171,0.897321
1.97,-0.000066,0.000003,-0.000034,0.004603,-0.002862,0.999985,0.444332,-0.001494,0.895861
1.98,-0.000183,0.000022,0.000049,-0.002351,0.002968,0.999993,0.442813,0.000589,0.896614
1.99,-0.000013,-0.000177,0.000022,0.004298,0.009653,0.999944,0.441416,-0.003997,0.897293
2,-0.000092,-0.000104,-0.000143,-0.002469,-0.002144,0.999995,0.446729,0.005429,0.894653
2.01,-0.000069,0.00005,0.000087,-0.002487,0.0049,0.999985,0.443445,-0.004368,0.896291
2.02,-0.000092,-0.00003,0.00012,0.004561,-0.002788,0.999986,0.443316,-0.004409,0.896354
2.03,-0.00028,-0.00004,0.000101,-0.003755,0.002002,0.999991,0.445342,-0.000029,0.895361
2.04,0.00002,0.00012,0.000153,0.003498,-0.010361,0.99994,0.440931,0.010959,0.897474
2.05,-0.000012,-0.000002,0.000122,-0.000827,-0.009205,0.999957,0.439777,0.002004,0.898105
2.06,-0.000087,-0.000032,0.000133,-0.007522,-0.000351,0.999972,0.446567,0.001102,0.89475
2.07,0.000131,-0.000043,0.000049,0.003763,-0.004253,0.999984,0.447434,-0.003027,0.894312
2.08,-0.000022,0.000089,0.000051,-0.002724,0.000661,0.999996,0.450135,-0.004234,0.89295
2.09,0.000089,-0.000113,0.000037,0.000857,0.006149,0.999981,0.442633,-0.00757,0.896671
2.1,-0.000057,0.00004,0.000145,-0.001054,-0.004243,0.99999,0.441361,-0.00081,0.897329
2.11,-0.000171,-0.000109,0.000083,0.005329,0.001856,0.999984,0.439227,-0.001296,0.898375
2.12,-0.000097,-0.000162,0.000144,0.006091,-0.009999,0.999931,0.446163,-0.004128,0.894942
2.13,0.000004,0.000014,0.000012,0.004889,0.000677,0.999988,0.444225,0.005515,0.895898
2.14,0.00005,-0.00005,0.000149,0.004416,0.001535,0.999989,0.446083,0.003412,0.894985
2.15,-0.000119,-0.000103,0.000071,0.001904,-0.003517,0.999992,0.444233,0.001578,0.89591
2.16,-0.000101,0.00003,0.000076,-0.001437,0.002784,0.999995,0.439364,-0.007338,0.898279
2.17,-0.00012,-0.000022,0.000023,0.000074,0.008751,0.999962,0.443177,-0.001983,0.896432
2.18,0.00004,-0.000084,0.000015,0.004588,0.00167,0.999988,0.439872,0.004865,0.898047
2.19,0.000066,0.000167,0.000228,-0.001796,0.005912,0.999981,0.453933,-0.014365,0.89092
2.2,-0.000034,-0.00001,0.000187,-0.001843,0.005343,0.999984,0.452832,0.001935,0.891594
2.21,-0.00005,-0.000114,0.000064,0.001648,0.003767,0.999992,0.445685,0.002263,0.895187
2.22,0,-0.000101,-0.00009,-0.008967,0.000308,0.99996,0.443919,0.004255,0.896057
2.23,-0.000165,0.000029,-0.000013,0.000995,0.001535,0.999998,0.443739,0.002489,0.896153
2.24,-0.000052,-0.00001,0.000108,0.00799,0.002267,0.999966,0.444114,0.000144,0.89597
2.25,-0.000069,0.000015,-0.000024,0.003463,0.002043,0.999992,0.444171,0.003481,0.895935
2.26,-0.000071,-0.000118,0.000152,0.008066,0.001428,0.999966,0.439108,0.008411,0.898395
2.27,-0.000042,-0.000093,0.000023,0.002426,-0.00789,0.999966,0.440856,-0.00363,0.89757
2.28,-0.000059,0.000032,-0.000086,0.000417,0.008573,0.999963,0.434384,0.007676,0.900695
2.29,-0.00013,-0.000062,0.000275,0.00202,0.001073,0.999997,0.443298,-0.00072,0.896374
2.3,0.000044,-0.000038,0.000116,-0.000268,0.001626,0.999999,0.446699,-0.005621,0.894667
2.31,0.00014,-0.000049,0.000022,0.002303,0.003623,0.999991,0.444103,-0.003284,0.89597
2.32,0.000066,0.000014,0.000112,-0.002499,0.001683,0.999995,0.441541,-0.003996,0.897232
2.33,-0.000084,0.000139,0.000203,-0.006101,-0.00739,0.999954,0.440465,0.00214,0.897767
2.34,0.00001,0.000031,-0.000123,0.007401,0.00734,0.999946,0.446582,-0.002619,0.894739
2.35,0.000016,-0.000046,0.000091,0.007736,0.008033,0.999938,0.449132,-0.000756,0.893465
2.36,0.00002,-0.000058,-0.000094,0.002625,0.008754,0.999958,0.445204,-0.006723,0.895404
2.37,-0.000007,-0.000093,0.000025,0.006143,-0.002927,0.999977,0.437232,-0.002415,0.899345
2.38,-0.000092,-0.000058,-0.000148,0.004599,-0.000632,0.999989,0.439544,0.000762,0.898221
2.39,0.000067,-0.000007,0.000151,0.000661,-0.0049,0.999988,0.440894,0.000661,0.897559
2.4,0.000133,-0.000027,-0.000104,-0.000486,-0.001452,0.999999,0.447113,0.001569,0.894476
2.41,-0.000117,-0.000134,0.00001,0.000519,-0.004458,0.99999,0.436688,-0.003442,0.899607
2.42,-0.000032,-0.000203,0.000084,-0.00152,0.004187,0.99999,0.446231,0.00323,0.894912
2.43,-0.000171,-0.000003,0.000044,-0.004912,-0.004425,0.999978,0.440551,0.000282,0.897727
2.44,-0.000067,-0.000035,0.000007,-0.006453,0.004417,0.999969,0.441589,-0.008569,0.897177
2.45,-0.000093,-0.000176,0.000051,0.004667,-0.001728,0.999988,0.442548,-0.006829,0.896719
2.46,0.000122,0.000144,0.000169,-0.004961,-0.005325,0.999974,0.446303,-0.001319,0.894881
2.47,0.000022,-0.000088,0.00018,-0.002603,0.005507,0.999981,0.437518,-0.002047,0.899207
2.48,-0.000044,-0.000035,0.000028,0.002755,-0.003983,0.999988,0.445981,-0.008986,0.894997
2.49,-0.000031,-0.000067,0.000046,0.007317,-0.000883,0.999973,0.442249,-0.001894,0.89689
2.5,-0.000134,-0.000061,0.000253,0.001045,-0.008441,0.999964,0.442709,0.00386,0.896657
2.51,-0.000046,-0.00005,0.0001,0.005536,0.006584,0.999963,0.450493,0.00129,0.892779
2.52,0.000022,-0.000126,0.000036,0.002113,-0.000373,0.999998,0.444745,0.004055,0.895648
2.53,0.000041,-0.000005,0.000064,-0.005687,0.003822,0.999977,0.436113,0.002048,0.89989
2.54,0.000096,-0.000088,0.000061,0.001884,-0.003739,0.999991,0.44902,-0.002031,0.893519
2.55,-0.000085,0.000101,-0.000117,-0.002644,0.006419,0.999976,0.439479,0.008913,0.898209
2.56,-0.000098,-0.000075,0.000112,-0.002536,-0.00149,0.999996,0.449398,-0.001136,0.893331
2.57,0.000013,0.000093,-0.000084,-0.004436,-0.001318,0.999989,0.445975,0.002369,0.895042
2.58,0.000026,-0.000054,-0.000004,0.010157,0.001987,0.999946,0.440606,-0.005921,0.897681
2.59,0.000008,-0.000109,-0.000128,-0.004329,0.00107,0.99999,0.441221,0.001561,0.897397
2.6,-0.000072,-0.000159,-0.000003,0.000589,-0.007356,0.999973,0.443917,0.002282,0.896065
2.61,-0.000007,-0.000001,0.000192,-0.009461,-0.000913,0.999955,0.43953,0.005205,0.898213
2.62,-0.000057,-0.000162,-0.000012,-0.002965,-0.001547,0.999994,0.442266,-0.005607,0.896866
2.63,-0.00012,-0.000135,0.000092,0.006264,0.000229,0.99998,0.446262,0.001462,0.894901
2.64,-0.000096,-0.000201,0.000114,0.007584,-0.007023,0.999947,0.444914,-0.009554,0.895522
2.65,-0.000049,0.000002,0.000063,-0.001007,-0.00363,0.999993,0.438005,-0.009724,0.89892
2.66,0.000016,-0.000025,0.000162,0.002096,0.0055,0.999983,0.446657,0.002708,0.894701
2.67,-0.000002,0.000006,0.000089,0.004446,-0.000712,0.99999,0.441885,-0.001789,0.89707
2.68,-0.000167,-0.000043,0.000031,0.001557,0.002019,0.999997,0.450653,0.003021,0.892694
2.69,-0.000021,-0.000147,0.000196,-0.001033,-0.007541,0.999971,0.447301,0.005618,0.894366
2.7,-0.00003,-0.000134,-0.000096,-0.013551,-0.001419,0.999907,0.437198,0.004572,0.899354
2.71,-0.000064,-0.000037,-0.000009,0.004127,-0.013525,0.9999,0.442431,-0.001963,0.8968
2.72,-0.000031,-0.000085,0.000102,-0.001708,-0.008014,0.999966,0.436377,0.001651,0.899762
2.73,-0.000103,-0.000032,0.000139,0.002452,0.00214,0.999995,0.443635,-0.005959,0.896188
2.74,0.000185,-0.000117,0.000013,-0.004181,0.001495,0.99999,0.441678,-0.001416,0.897173
2.75,-0.000113,0.00004,-0.000047,-0.003409,0.001465,0.999993,0.442568,-0.00029,0.896735
2.76,-0.000082,-0.000031,-0.000032,-0.004272,0.002271,0.999988,0.436325,0.001799,0.899787
2.77,-0.000123,-0.00007,-0.00013,0.003301,-0.00806,0.999962,0.438796,0.000512,0.898587
2.78,-0.000166,-0.000065,0.000067,-0.001948,0.006204,0.999979,0.446141,0.010415,0.894902
2.79,-0.000056,-0.000183,0.000013,0.009902,-0.006204,0.999932,0.441755,-0.007614,0.897104
2.8,0.00003,0.00002,0.000047,-0.004382,0.0089,0.999951,0.438849,-0.000667,0.898561
2.81,-0.000117,0.000026,0.000003,-0.004664,0.003818,0.999982,0.443087,-0.000175,0.896479
2.82,-0.000141,-0.000099,0.00018,-0.008196,-0.005265,0.999953,0.440148,-0.005462,0.897909
2.83,-0.00002,0.000072,0.000012,0.002611,-0.001884,0.999995,0.446828,-0.012277,0.894535
2.84,0.000042,-0.000081,0.00004,0.0016,0.001468,0.999998,0.4447,-0.002399,0.895676
2.85,0.000178,0.000038,0.00001,0.000709,0.002717,0.999996,0.448231,-0.00386,0.893909
2.86,-0.000047,0,0.000159,0.007783,0.007372,0.999943,0.441197,-0.00165,0.897409
2.87,-0.000082,-0.000181,0.000029,0.010617,-0.004071,0.999935,0.443869,-0.003494,0.896085
2.88,-0.000038,-0.000019,0.000169,-0.003113,-0.003575,0.999989,0.447044,0.00749,0.894481
2.89,-0.000012,0.000042,-0.000042,0.000256,-0.000275,1,0.447532,-0.001868,0.894266
2.9,0.000036,0.000154,0.000121,0.008068,0.000865,0.999967,0.443503,0.005535,0.896256
2.91,-0.000017,-0.000015,0.00021,0.001389,0.006386,0.999979,0.433475,0.004523,0.901154
2.92,-0.00012,-0.000038,0.000094,0.007161,0.001567,0.999973,0.444181,-0.008462,0.895897
2.93,0.000025,-0.000067,0.00008,0.002511,0.010015,0.999947,0.450176,-0.001419,0.892938
2.94,-0.000064,-0.000018,0.000042,0.006972,0.002872,0.999972,0.446298,0.002168,0.894882
2.95,-0.000139,-0.000031,0.00013,0.00028,0.004152,0.999991,0.439083,-0.002038,0.898444
2.96,-0.000124,-0.00005,0.000112,0.00191,0.003362,0.999993,0.444255,-0.00439,0.89589
2.97,-0.000133,-0.000013,-0.000039,-0.003272,-0.005027,0.999982,0.439312,-0.004695,0.898322
2.98,0.00006,0.000173,0.00023,-0.001034,-0.001826,0.999998,0.444957,0.008322,0.895513
2.99,-0.000059,0.000036,0.000064,-0.004725,-0.001192,0.999988,0.445559,0.000107,0.895252
3,-0.000031,0.000106,-0.000061,0.00846,0.000295,0.999964,0.447665,0.004659,0.894189
3.01,0.000053,-0.000033,0.000177,0.003947,-0.005086,0.999979,0.440715,0.008596,0.897606
3.02,-0.000023,-0.000087,0.000078,-0.011183,-0.001923,0.999936,0.43787,-0.003624,0.899031
3.03,0.000025,-0.000026,0.000096,-0.015295,0.002704,0.999879,0.441915,-0.004118,0.897048
3.04,-0.000085,-0.000215,0.000132,-0.013159,0.002726,0.99991,0.453981,-0.005302,0.890996
3.05,0.000022,-0.000016,0.00006,-0.023449,0.000166,0.999725,0.447176,-0.000007,0.894446
3.06,0.000051,-0.000069,-0.000008,-0.01891,-0.005537,0.999806,0.449679,-0.006516,0.893166
3.07,-0.000056,0.000075,-0.000067,-0.026051,-0.006447,0.99964,0.447387,-0.003117,0.894335
3.08,0.000065,-0.000084,-0.000042,-0.027238,0.00013,0.999629,0.440309,0.003788,0.897838
3.09,0.000071,-0.000037,-0.00006,-0.029686,-0.007955,0.999528,0.43761,0.005309,0.899149
3.1,-0.000071,0.000053,0.000158,-0.035842,-0.004497,0.999347,0.445148,0.005306,0.895441
3.11,-0.000077,0.000007,0.000116,-0.032273,0.000321,0.999479,0.44591,0.007081,0.89505
3.12,-0.000096,0.000002,0.000051,-0.035859,0.005478,0.999342,0.441797,-0.004585,0.897103
3.13,-0.000086,-0.000072,0.000059,-0.041298,-0.001125,0.999146,0.439286,0.00085,0.898347
3.14,-0.000037,-0.000078,0.000016,-0.037512,-0.001076,0.999296,0.444303,0.001115,0.895876
3.15,0.000058,-0.00001,0.000131,-0.047612,0.007559,0.998837,0.446309,0.000379,0.894879
3.16,0.000065,0.000023,0.000252,-0.055114,-0.004334,0.998471,0.44955,-0.001339,0.893254
3.17,-0.000111,0.000042,0.000026,-0.044349,-0.004414,0.999006,0.450942,0.003718,0.892545
3.18,0.000123,0.00012,-0.000117,-0.055091,-0.002637,0.998478,0.451655,0.008001,0.892157
3.19,-0.000124,0.000029,0.000123,-0.046874,0.000831,0.9989,0.447304,0.002552,0.894378
3.2,0.000025,-0.000035,0.000093,-0.0653,0.000748,0.997865,0.440864,0.001426,0.897573
3.21,0.000018,-0.000035,0.000143,-0.05267,-0.004435,0.998602,0.436177,-0.001912,0.899859
3.22,-0.000237,0.000027,-0.000037,-0.067591,-0.003315,0.997708,0.450663,-0.005123,0.89268
3.23,0.000044,-0.000049,-0.000024,-0.069846,0.00626,0.997538,0.43908,0.000466,0.898448
3.24,-0.000007,-0.000108,-0.000026,-0.073547,-0.003363,0.997286,0.44489,-0.002039,0.895583
3.25,-0.000176,-0.000031,0.000097,-0.077952,0.005595,0.996941,0.441121,-0.003859,0.897439
3.26,0.00005,-0.000041,0.000145,-0.077909,-0.00234,0.996958,0.43862,0.01011,0.898616
3.27,-0.000038,-0.000037,0.000104,-0.079579,0.000978,0.996828,0.443675,-0.002064,0.896185
3.28,0.000053,-0.000058,0.000032,-0.079802,-0.00107,0.99681,0.450524,0.008815,0.892721
3.29,-0.000053,-0.000021,-0.000025,-0.080526,-0.007909,0.996721,0.444962,0.009382,0.8955
3.3,0.00005,-0.000064,0.000094,-0.082463,-0.006725,0.996571,0.444675,0.003509,0.895685
3.31,-0.000111,0.000003,0.000088,-0.091387,-0.013323,0.995726,0.445567,-0.007264,0.895219
3.32,-0.000076,0.000148,0.000086,-0.087974,0.002631,0.996119,0.448157,-0.005839,0.893936
3.33,0.000116,0.000055,-0.000004,-0.097283,-0.000977,0.995256,0.449458,-0.002326,0.893299
3.34,-0.000073,0.000009,0.000059,-0.092832,-0.007478,0.995654,0.442829,-0.007052,0.896578
3.35,-0.000035,-0.000054,-0.000104,-0.095998,-0.001054,0.995381,0.447389,-0.000634,0.894339
3.36,-0.000059,-0.000222,0.000086,-0.094898,-0.000738,0.995487,0.435703,-0.000954,0.90009
3.37,-0.000103,-0.000091,0.000034,-0.099298,0.000463,0.995058,0.435593,0.001089,0.900143
3.38,-0.000016,-0.000154,-0.000099,-0.107895,-0.000893,0.994162,0.441486,0.007359,0.897238
3.39,-0.000132,-0.000207,-0.000031,-0.103703,-0.002958,0.994604,0.444593,-0.007682,0.8957
3.4,0.000099,-0.000121,0.00011,-0.101305,-0.003517,0.994849,0.436725,-0.000768,0.899595
3.41,-0.000159,-0.000003,0.000026,-0.115504,-0.005545,0.993292,0.449942,0.005327,0.893042
3.42,-0.000045,0.000021,0.000207,-0.110031,0.000505,0.993928,0.447888,0.006396,0.894067
3.43,-0.000022,-0.000018,-0.000031,-0.109041,-0.004332,0.994028,0.444661,0.004022,0.89569
3.44,0.000011,-0.00005,0.000126,-0.113085,0.001977,0.993583,0.448912,0.0023,0.893573
3.45,-0.000043,0.000123,-0.000119,-0.116,0.005907,0.993232,0.443311,-0.002272,0.896365
3.46,-0.000065,0.000048,0.000023,-0.11738,0.008436,0.993051,0.441665,-0.002839,0.897175
3.47,-0.000109,-0.000052,-0.000067,-0.125848,-0.011359,0.991985,0.44687,-0.005295,0.894583
3.48,-0.000029,0.000184,0.000154,-0.116912,0.00442,0.993132,0.44812,-0.000894,0.893973
3.49,-0.000136,-0.000105,0.000018,-0.120735,0.004584,0.992674,0.448678,-0.003304,0.893687
3.5,0.000048,-0.0001,-0.000007,-0.124055,0.000728,0.992275,0.4502,-0.007157,0.892899
3.51,0.000038,0.000047,0.000021,-0.127616,-0.003285,0.991818,0.43836,-0.00102,0.898799
3.52,-0.000137,-0.000164,-0.000007,-0.117753,0.003145,0.993038,0.440576,-0.001774,0.897714
3.53,-0.000234,0.000037,-0.000001,-0.127717,-0.000288,0.991811,0.438087,0.002292,0.89893
3.54,0.000003,0.000134,0.000156,-0.129293,0.005693,0.99159,0.44373,0.009203,0.896114
3.55,-0.00014,0.000047,0.000155,-0.128704,0.00258,0.99168,0.446716,-0.013592,0.894573
3.56,-0.000105,-0.000112,0.000044,-0.120759,-0.001829,0.99268,0.447469,-0.006386,0.894277
3.57,-0.000179,0.0001,-0.000156,-0.136538,-0.004408,0.990625,0.446076,0.005442,0.894978
3.58,-0.000136,-0.000052,0.000034,-0.129082,0.007218,0.991608,0.447195,0.001846,0.894434
3.59,-0.000025,-0.000005,0.000035,-0.13598,-0.001395,0.990711,0.444584,-0.004536,0.895726
3.6,0.00006,-0.000215,0.000054,-0.134293,0.001366,0.990941,0.437798,-0.010031,0.899018
3.61,-0.000102,-0.000017,0.000073,-0.139686,0.000548,0.990196,0.44784,0.001706,0.894112
3.62,-0.000119,-0.000085,0.000123,-0.142407,-0.000595,0.989808,0.439048,-0.005521,0.898447
3.63,-0.000009,-0.000088,0.000232,-0.148981,0.001472,0.988839,0.44573,0.002311,0.895164
3.64,0.000162,-0.000156,0.00008,-0.143805,0.006342,0.989586,0.449943,-0.000692,0.893057
3.65,0.00018,0.00004,0.000073,-0.135866,-0.000887,0.990727,0.449423,-0.007171,0.89329
3.66,-0.000058,-0.000076,0.000035,-0.147816,0.011725,0.988945,0.445168,0.009245,0.895399
3.67,-0.000088,0.000036,0.000019,-0.14021,0.006929,0.990098,0.442039,-0.003864,0.896987
3.68,-0.000078,-0.000134,0.000049,-0.139128,-0.010039,0.990224,0.446,0.000237,0.895033
3.69,-0.000117,-0.000044,0.000145,-0.146108,-0.0089,0.989229,0.443764,-0.00881,0.8961
3.7,-0.000008,0.000015,0.000085,-0.136692,-0.003891,0.990606,0.442222,-0.013299,0.896807
3.71,-0.000034,-0.00004,0.000027,-0.139184,0.004287,0.990257,0.436089,0.002034,0.899901
3.72,0.000027,-0.000123,0.000171,-0.135089,0.004552,0.990823,0.433535,-0.007762,0.901103
3.73,-0.000036,-0.000094,0.000011,-0.145784,0.002712,0.989313,0.439335,0.005344,0.898307
3.74,-0.000099,-0.000015,-0.000009,-0.131456,-0.003018,0.991317,0.441788,0.006813,0.897094
3.75,0.00006,-0.000097,-0.000145,-0.142812,0.002533,0.989747,0.443452,0.004691,0.896286
3.76,-0.000103,-0.000204,0.00005,-0.141058,0.007206,0.989975,0.437203,0.005724,0.899345
3.77,0.000053,0.000028,-0.000063,-0.136909,-0.001396,0.990583,0.447366,0.001118,0.89435
3.78,-0.000106,0.000127,0.000081,-0.145639,0.000927,0.989337,0.445489,0.009259,0.895239
3.79,-0.000039,0.000063,0.000268,-0.14121,0.004916,0.989967,0.443099,0.001058,0.896472
3.8,0.000074,-0.000017,0.000085,-0.148419,-0.005617,0.988909,0.444089,-0.011079,0.895914
3.81,0.000014,-0.000082,-0.000039,-0.130824,-0.002179,0.991403,0.447627,-0.009922,0.894166
3.82,-0.000035,-0.000111,0.000048,-0.141352,0.001454,0.989958,0.44807,0.007167,0.89397
3.83,-0.000031,0.000176,-0.000021,-0.137112,0.002293,0.990553,0.45322,0.002561,0.891395
3.84,-0.00005,-0.000043,0.000092,-0.141501,0.004381,0.989928,0.443413,0.002916,0.896313
3.85,0.000052,-0.000071,-0.000018,-0.135762,0.003397,0.990736,0.438223,0.003346,0.89886
3.86,-0.000183,-0.00011,0.0001,-0.130023,0.009428,0.991466,0.45558,0.002371,0.890192
3.87,-0.000035,-0.000117,0.000021,-0.132214,0.004034,0.991213,0.441099,0.001128,0.897458
3.88,-0.000037,0.000015,0.000002,-0.138608,-0.002026,0.990345,0.438042,-0.006231,0.898933
3.89,-0.000061,-0.000187,-0.000047,-0.133668,-0.010777,0.990968,0.43978,0.00774,0.898072
3.9,0.000102,-0.00022,0.000024,-0.132258,-0.004672,0.991204,0.444064,0.005096,0.895981
3.91,-0.00002,-0.000061,-0.000017,-0.131734,-0.008988,0.991244,0.438674,-0.008605,0.898605
3.92,-0.000045,-0.000029,0.000046,-0.12241,0.008756,0.992441,0.450473,0.005254,0.892775
3.93,-0.000203,-0.000042,-0.000021,-0.137545,0.000271,0.990495,0.440007,0.00003,0.897994
3.94,-0.000087,-0.000009,0.00011,-0.135812,-0.003705,0.990728,0.435434,-0.000364,0.900221
3.95,0.000039,-0.000072,0.000134,-0.127824,0.005168,0.991783,0.443779,-0.005668,0.896118
3.96,0.000063,0.000071,0.000175,-0.12305,-0.002692,0.992397,0.43884,0.00856,0.898525
3.97,-0.000052,-0.000044,0.000126,-0.13146,-0.009656,0.991274,0.44931,-0.001396,0.893375
3.98,-0.000159,-0.00001,0.000007,-0.131801,-0.002384,0.991273,0.446229,-0.001945,0.894917
3.99,-0.000072,-0.000181,-0.000024,-0.123231,0.001933,0.992376,0.439821,-0.004582,0.898074
4,-0.000041,0.000049,0.00014,-0.122796,0.00576,0.992415,0.443894,-0.002436,0.896076
4.01,-0.000046,-0.000045,-0.000019,-0.121461,-0.012418,0.992518,0.446295,0.008134,0.894849
4.02,-0.000004,-0.00005,0.000106,-0.114594,-0.004433,0.993402,0.439431,0.004803,0.898263
4.03,0.000113,-0.000032,-0.000077,-0.112465,-0.006205,0.993636,0.44374,0.011705,0.896079
4.04,-0.000115,-0.000156,-0.000051,-0.117894,-0.003262,0.993021,0.442505,0.007825,0.896732
4.05,0.000074,-0.000009,-0.000079,-0.108575,-0.009294,0.994045,0.446031,0.006025,0.894997
4.06,0.000018,0.000081,0.000022,-0.108577,-0.006331,0.994068,0.448948,-0.006673,0.893533
4.07,-0.000098,-0.000058,0.000078,-0.111764,-0.001473,0.993734,0.447965,0.004887,0.894038
4.08,0.000016,0.000074,0.000159,-0.112997,0.001293,0.993594,0.440295,-0.000732,0.897853
4.09,0.000064,0.00009,0.000111,-0.103831,0.001102,0.994594,0.451248,0.01238,0.892313
4.1,-0.000173,-0.00004,0.000081,-0.103972,0.002731,0.994576,0.443725,0.002463,0.89616
4.11,-0.000073,0.000051,0.000022,-0.099054,0.001797,0.99508,0.449279,0.004852,0.893378
4.12,-0.00012,0.000097,0.000112,-0.105858,-0.00881,0.994342,0.442027,-0.002889,0.896997
4.13,-0.00002,0.000052,0.000146,-0.095199,-0.004843,0.995446,0.438973,-0.002497,0.898497
4.14,-0.00001,-0.000243,-0.000005,-0.099425,0.001699,0.995044,0.447441,0.001892,0.894311
4.15,-0.000079,-0.000115,0.000071,-0.096593,-0.006058,0.995305,0.439472,-0.008036,0.89822
4.16,0.000065,-0.000071,-0.000045,-0.088889,-0.000379,0.996041,0.439345,-0.002696,0.898314
4.17,0.000138,-0.000068,-0.000054,-0.092262,0.004252,0.995726,0.443314,0.004408,0.896356
4.18,-0.000019,0.000008,-0.000008,-0.092892,-0.004485,0.995666,0.4429,0.005051,0.896557
4.19,0.00003,-0.000071,-0.000027,-0.070204,0.002454,0.99753,0.454416,0.000047,0.89079
4.2,-0.000024,0.000039,-0.000002,-0.077565,-0.000687,0.996987,0.432679,0.005291,0.901533
4.21,-0.000011,-0.000037,0.0003,-0.086623,0.006767,0.996218,0.445343,-0.001432,0.895359
4.22,-0.000101,0.000092,0.000049,-0.085742,0.004032,0.996309,0.441724,-0.012307,0.897067
4.23,-0.000051,0.000034,0.000132,-0.070353,-0.005492,0.997507,0.436528,0.002682,0.899687
4.24,0.000071,0,0.000001,-0.075502,-0.006373,0.997125,0.438151,-0.00176,0.8989
4.25,-0.000086,0.000016,0.000104,-0.072014,0.004276,0.997394,0.437325,0.004811,0.89929
4.26,0.000083,0.000008,0.000146,-0.070166,0.002383,0.997532,0.446373,0.002607,0.894843
4.27,0.000093,-0.000014,-0.000076,-0.060801,0.001298,0.998149,0.44242,0.004271,0.896798
4.28,-0.000142,-0.000154,0.000193,-0.065652,-0.00673,0.99782,0.443026,0.002475,0.896505
4.29,-0.000113,0.000079,0.000105,-0.060676,0.008231,0.998124,0.43724,0.009795,0.899292
4.3,0.00011,0.000059,0.000045,-0.054667,0.006588,0.998483,0.442974,-0.003497,0.896527
4.31,-0.000057,-0.000021,0.000069,-0.058428,-0.001304,0.998291,0.438275,0.003815,0.898833
4.32,-0.000086,-0.000032,0.000194,-0.057921,0.004225,0.998312,0.441266,-0.003972,0.897367
4.33,-0.000188,-0.000006,-0.000026,-0.047398,0.003365,0.99887,0.446676,-0.001912,0.894694
4.34,-0.000023,0.000045,0.000049,-0.041524,-0.003242,0.999132,0.444675,0.000707,0.895692
4.35,0.000028,-0.000167,0.00015,-0.043587,0.002046,0.999048,0.44121,0.000262,0.897404
4.36,-0.000092,0.000026,0.00007,-0.049656,-0.00595,0.998749,0.440194,0.000645,0.897903
4.37,-0.000265,-0.000095,0.000073,-0.050969,0.005076,0.998687,0.443784,-0.000959,0.896133
4.38,0.000096,-0.000004,0.000076,-0.036439,0.00527,0.999322,0.440166,0.000002,0.897916
4.39,-0.000163,0.000096,0.000211,-0.038257,0.003092,0.999263,0.44864,-0.000229,0.893713
4.4,-0.000037,-0.000048,-0.000088,-0.034579,-0.007312,0.999375,0.441617,0.001359,0.897202
4.41,0.000038,0.000207,0.000116,-0.020554,-0.001635,0.999787,0.443624,-0.007638,0.89618
4.42,0.000071,0.000019,-0.000032,-0.027146,0.002956,0.999627,0.445131,0.003286,0.89546
4.43,0.000077,-0.000136,0.000035,-0.022141,0.004153,0.999746,0.441496,-0.000392,0.897263
4.44,-0.000015,0.000048,0.00009,-0.018443,-0.006149,0.999811,0.447487,-0.010204,0.894232
4.45,-0.000006,-0.000095,-0.000059,-0.014741,-0.005976,0.999873,0.442158,0.000809,0.896937
4.46,-0.000034,-0.000091,-0.000061,-0.009051,-0.00094,0.999959,0.438515,0.006389,0.898701
4.47,-0.00015,-0.000071,-0.000108,-0.000254,0.000802,1,0.451944,0.007798,0.892012
4.48,-0.000157,-0.000171,0.00007,-0.012081,0.004132,0.999918,0.435529,-0.002363,0.900172
4.49,-0.000004,0.000146,-0.000077,-0.008416,0.003226,0.999959,0.449296,-0.005727,0.893365
4.5,-0.000099,0.000051,0.000035,-0.001179,0.000326,0.999999,0.446038,0.001628,0.895013
4.51,-0.000068,0.00012,0.000024,-0.000409,-0.001798,0.999998,0.44405,-0.008307,0.895964
4.52,-0.00014,-0.000144,0.000083,0.004927,-0.009357,0.999944,0.446087,0.002182,0.894987
4.53,-0.000013,-0.000148,-0.000032,0.01357,0.008739,0.99987,0.448699,-0.00195,0.893681
4.54,0.000007,0.000022,-0.000003,0.005425,0.003258,0.99998,0.435681,0.004364,0.90009
4.55,0.000015,0.000021,-0.000102,0.014757,-0.002152,0.999889,0.445033,-0.004188,0.895504
4.56,-0.000067,0.000008,0.000004,0.015545,0.003483,0.999873,0.449244,0.011721,0.893332
4.57,-0.000226,-0.000053,0.000119,0.032931,0.003892,0.99945,0.456602,0.002411,0.889668
4.58,0.000098,-0.00022,0.000282,0.018778,-0.001047,0.999823,0.4307,0.003039,0.90249
4.59,-0.000138,0.000055,0.000161,0.022263,0.006988,0.999728,0.443663,-0.000235,0.896194
4.6,0.000046,-0.000016,-0.000048,0.023987,0.002766,0.999708,0.440506,0.006014,0.897729
4.61,0.000015,-0.000091,-0.000167,0.035942,-0.00341,0.999348,0.441994,0.003008,0.897013
4.62,0.000207,0.000033,0.000212,0.035787,0.010111,0.999308,0.443743,-0.002113,0.896152
4.63,-0.000119,0.000099,0.000192,0.044666,-0.000615,0.999002,0.440296,-0.008596,0.897812
4.64,0.000096,-0.000031,-0.000051,0.040346,-0.005528,0.99917,0.447504,0.000398,0.894282
4.65,-0.000055,-0.000221,-0.000095,0.040583,0.00301,0.999172,0.447542,-0.004508,0.894251
4.66,-0.000031,-0.000115,0.000039,0.046923,0.005303,0.998884,0.445769,0.003257,0.895142
4.67,-0.000049,0.00014,0.000167,0.04389,0.005006,0.999024,0.443306,0.009685,0.896318
4.68,-0.000043,0.000077,-0.000014,0.04905,-0.002926,0.998792,0.435851,-0.007594,0.899987
4.69,-0.000069,0.000051,-0.000055,0.056228,-0.002782,0.998414,0.4377,0.003864,0.899113
4.7,-0.000064,-0.000144,0.000064,0.066198,0.004634,0.997796,0.43633,-0.009109,0.899741
4.71,0.000103,-0.000094,0.000073,0.051756,-0.005664,0.998644,0.444919,-0.006513,0.895547
4.72,-0.000118,-0.000129,-0.000054,0.058944,-0.004302,0.998252,0.432818,0.003098,0.901476
4.73,0.000088,0.000177,0.000096,0.064276,-0.001975,0.99793,0.442771,0.001917,0.896633
4.74,-0.000102,0.000033,0.000024,0.075468,0.001524,0.997147,0.446737,0.005357,0.894649
4.75,0.00003,-0.000003,0.000078,0.071836,0.007898,0.997385,0.445739,-0.006435,0.89514
4.76,0.000014,-0.000079,0.000018,0.06716,-0.002586,0.997739,0.440218,0.002735,0.897887
4.77,-0.00019,-0.000067,-0.000071,0.084029,-0.005618,0.996447,0.443159,0.003301,0.896437
4.78,-0.000052,-0.000112,0.000062,0.080934,0.000331,0.996719,0.441833,0.009937,0.897042
4.79,0,-0.000153,-0.000017,0.07824,-0.008405,0.996899,0.446495,-0.000828,0.894786
4.8,-0.000122,0.000036,0.000203,0.090536,-0.007884,0.995862,0.440258,0.000846,0.897871
4.81,0.000035,-0.000059,0.000181,0.08328,-0.009475,0.996481,0.443465,-0.00171,0.89629
4.82,-0.000172,0.000102,-0.000004,0.082382,0.003764,0.996594,0.450121,-0.011605,0.892892
4.83,-0.000282,0.000203,0.000191,0.091133,0.003356,0.995833,0.440443,0.000756,0.89778
4.84,-0.000129,-0.000014,0.000035,0.088171,0.004676,0.996094,0.44151,-0.001332,0.897255
4.85,-0.000031,-0.000158,-0.000006,0.102172,-0.003098,0.994762,0.439425,-0.002189,0.898277
4.86,0.000001,-0.000009,0.000158,0.098729,0.002111,0.995112,0.443708,0.001838,0.89617
4.87,-0.000032,0.000176,-0.000009,0.091581,-0.004463,0.995788,0.442567,-0.000002,0.896735
4.88,-0.000017,-0.000196,-0.000056,0.102394,-0.000464,0.994744,0.439903,-0.002516,0.898042
4.89,0.000076,-0.000111,0.0001,0.101786,0.004747,0.994795,0.444593,0.002159,0.89573
4.9,-0.000045,-0.00012,0.000023,0.106562,-0.000967,0.994306,0.439267,0.001569,0.898355
4.91,-0.000084,-0.000071,0.000119,0.10988,0.003163,0.99394,0.44593,0.001773,0.895066
4.92,0.000017,-0.000079,-0.000026,0.111544,0.008093,0.993727,0.441515,0.004817,0.897241
4.93,-0.000015,-0.000037,0.000143,0.111102,-0.00118,0.993808,0.433771,0.004909,0.90101
4.94,0.000192,0.000045,0.000051,0.102123,0.00809,0.994739,0.448533,0.001812,0.893764
4.95,-0.000054,-0.000103,-0.000026,0.11268,0.001408,0.99363,0.440304,0.003811,0.897841
4.96,-0.000127,-0.000063,0.000016,0.117285,0.003405,0.993092,0.440059,0.005171,0.897954
4.97,0.000025,-0.000064,0.000036,0.117768,0.003762,0.993034,0.442479,0.003522,0.896772
4.98,-0.000146,0.000115,0.000098,0.121716,-0.003061,0.99256,0.447056,0.0067,0.894481
4.99,0.000117,0.000041,0.000184,0.130744,-0.001538,0.991415,0.440203,-0.002022,0.897896
5,-0.000061,0.000034,0.00029,0.124805,0.00453,0.992171,0.438838,0.003841,0.898558
5.01,-0.000146,0.000074,0.000202,0.123328,0.009877,0.992317,0.443553,-0.011001,0.896181
5.02,-0.000003,0.000038,0.000165,0.122136,0.004047,0.992505,0.445094,-0.000559,0.895484
5.03,-0.000098,0.000008,-0.000024,0.13409,-0.008008,0.990937,0.443387,0.00458,0.896318
5.04,-0.0001,-0.000084,0.000041,0.133172,-0.006307,0.991073,0.444375,-0.009909,0.895786
5.05,-0.000026,0.000012,-0.000073,0.131592,0.000274,0.991304,0.443923,0.000487,0.896065
5.06,0.000137,0.000075,0.000119,0.132265,-0.00691,0.99119,0.442164,-0.004427,0.896923
5.07,-0.000071,-0.000037,0.000103,0.139515,-0.003137,0.990215,0.443889,-0.001234,0.896081
5.08,-0.000003,-0.000179,0.00012,0.131866,0.004392,0.991258,0.446939,0.002332,0.894561
5.09,0.000221,-0.000194,0.000143,0.135097,0.005916,0.990815,0.443589,0.000923,0.89623
5.1,-0.000006,-0.000039,0.000176,0.12499,-0.003195,0.992153,0.445735,-0.001785,0.895163
5.11,-0.000145,-0.000014,0.000185,0.141445,-0.001073,0.989946,0.445732,-0.003693,0.895159
5.12,-0.000057,-0.000066,0.000064,0.131635,0.010448,0.991243,0.443358,-0.001093,0.896344
5.13,-0.000079,0.00011,-0.000028,0.143628,-0.008014,0.989599,0.441436,0.005135,0.897278
5.14,0.000039,-0.000141,0.000114,0.134399,-0.006683,0.990905,0.443164,0.003491,0.896434
5.15,-0.000049,-0.00026,0.000053,0.132787,0.00246,0.991141,0.435477,-0.006078,0.900179
5.16,-0.000135,-0.000069,0.000192,0.135524,0.003338,0.990768,0.443384,-0.002352,0.896329
5.17,-0.00014,-0.000124,0.000183,0.139756,-0.001738,0.990185,0.439814,-0.005608,0.898071
5.18,-0.000029,0.00011,0.000083,0.130517,-0.009743,0.991398,0.439344,0.003411,0.898312
5.19,-0.000119,-0.000035,0.000164,0.140318,0.008851,0.990067,0.442545,0.004247,0.896736
5.2,0.000045,-0.000029,0.000058,0.136268,-0.002365,0.990669,0.439744,0.000034,0.898123
5.21,-0.00005,-0.000081,0.000227,0.140336,-0.000379,0.990104,0.447897,-0.00829,0.894047
5.22,-0.000039,-0.00013,0.000011,0.141575,0.005234,0.989914,0.446079,0.000653,0.894993
5.23,0.000026,0.000029,0.000041,0.135915,0.004296,0.990711,0.443548,-0.005687,0.896233
5.24,-0.000099,-0.000027,-0.000097,0.141666,0.00054,0.989914,0.4466,-0.004044,0.894725
5.25,-0.000156,0.000043,0.000011,0.140704,-0.000406,0.990052,0.444841,-0.008408,0.89557
5.26,-0.000006,0.000081,0.000112,0.145363,0.001624,0.989377,0.444271,0.001358,0.895891
5.27,-0.000038,0.000162,0.000114,0.143798,0.010469,0.989552,0.44524,-0.001954,0.895409
5.28,-0.000071,0.000037,0.00009,0.14812,-0.002568,0.988966,0.444984,0.002662,0.895535
5.29,-0.000116,-0.000022,0.000039,0.140142,-0.008301,0.990097,0.449486,0.003509,0.893281
5.3,-0.000216,-0.000044,0.000028,0.134073,0.002112,0.990969,0.442664,-0.001165,0.896687
5.31,-0.000079,-0.000176,0.000022,0.140197,0.004207,0.990115,0.445475,-0.008586,0.895253
5.32,-0.000043,-0.00002,-0.000048,0.134748,-0.003105,0.990875,0.447537,0.002458,0.894262
5.33,0.000017,-0.000138,0.000034,0.138158,0.000693,0.99041,0.447348,-0.00439,0.894349
5.34,0.000078,-0.000091,0.000008,0.125534,0.001383,0.992088,0.439972,-0.005243,0.897996
5.35,0.000057,-0.000063,0.000027,0.147234,0.003537,0.989095,0.442636,0.002062,0.896699
5.36,-0.00002,0.000065,-0.000144,0.142548,0.009456,0.989743,0.443943,0.000286,0.896055
5.37,-0.000114,-0.000119,-0.000044,0.133465,-0.000616,0.991053,0.43744,-0.006889,0.899221
5.38,-0.000116,-0.000104,0.000081,0.126811,-0.011704,0.991858,0.445345,-0.005013,0.895345
5.39,-0.000119,-0.000018,0.00009,0.132417,0.002292,0.991191,0.43689,-0.009805,0.899462
5.4,-0.000105,-0.000017,0.0002,0.133183,0.006814,0.991068,0.44475,0.007627,0.895622
5.41,-0.000011,-0.000086,0.000048,0.136954,-0.004699,0.990566,0.444196,-0.00296,0.895925
5.42,-0.000121,-0.000005,0.000131,0.131732,0.001816,0.991284,0.44193,-0.003947,0.897041
5.43,-0.000113,-0.000047,0.000153,0.135866,-0.006431,0.990706,0.440699,-0.002685,0.897651
5.44,-0.000084,-0.000012,-0.000038,0.130181,0.003577,0.991484,0.43849,0.005565,0.898719
5.45,-0.000112,-0.000074,0.000244,0.132321,-0.001705,0.991205,0.440316,0.006321,0.89782
5.46,-0.000075,-0.000075,0.000004,0.125182,-0.006381,0.992113,0.444819,-0.001741,0.895619
5.47,-0.000054,0.000029,0.00007,0.124349,0.000581,0.992238,0.441698,0.001669,0.897162
5.48,0.00014,-0.00001,0.00018,0.125466,-0.001302,0.992097,0.443739,-0.001545,0.896154
5.49,-0.000015,0.000024,-0.000072,0.121737,0.001524,0.992561,0.443307,-0.002027,0.896368
5.5,-0.000051,-0.000035,0.000032,0.109401,0.001405,0.993997,0.446864,0.010626,0.894539
5.51,-0.000227,0.000048,0.00002,0.118376,0.00093,0.992968,0.444311,-0.001646,0.895871
5.52,-0.000078,-0.000051,0.000034,0.119612,-0.004248,0.992812,0.441973,0.000679,0.897028
5.53,-0.000004,-0.00014,-0.000028,0.119941,-0.007144,0.992755,0.450535,-0.002639,0.892755
5.54,-0.000014,-0.000016,0.000021,0.119538,0.002091,0.992827,0.443125,0.004287,0.89645
5.55,-0.00009,-0.000102,0.000049,0.108839,-0.003304,0.994054,0.443739,-0.000211,0.896156
5.56,0.000064,-0.000121,0.000187,0.114661,-0.000007,0.993405,0.441277,0.000872,0.89737
5.57,0.000034,-0.000068,0.000122,0.110455,-0.002405,0.993878,0.441164,-0.006275,0.897404
5.58,-0.000167,-0.00018,-0.000059,0.104476,-0.003989,0.994519,0.441334,0.00111,0.897342
5.59,-0.000075,-0.000057,0.000009,0.109029,0.003854,0.994031,0.436531,-0.001083,0.899688
5.6,-0.000031,-0.000215,0.000097,0.10131,-0.003681,0.994848,0.445565,0.002786,0.895245
5.61,-0.000163,-0.000086,0.000018,0.101126,-0.00151,0.994872,0.446293,0.005937,0.894867
5.62,-0.00014,-0.000148,-0.000034,0.093982,0.00638,0.995553,0.449199,0.007878,0.893397
5.63,-0.00004,0.000023,0.000103,0.091902,0.004049,0.99576,0.440873,0.007184,0.897541
5.64,-0.000126,-0.000098,-0.000027,0.102101,0.001716,0.994773,0.44355,0.00019,0.896249
5.65,0,-0.000206,0.000162,0.093526,-0.007035,0.995592,0.441297,0.002685,0.897357
5.66,-0.000082,-0.000097,0.000083,0.093702,-0.000524,0.9956,0.441097,0.003785,0.897452
5.67,0.000051,0.000001,0.000145,0.0848,-0.00429,0.996389,0.440385,-0.001275,0.897808
5.68,-0.000028,0.000079,0.000162,0.090416,0.004488,0.995894,0.437323,0.001496,0.899303
5.69,-0.000048,0.000097,0.000068,0.092134,0.003536,0.99574,0.435309,-0.001945,0.900279
5.7,-0.000032,-0.000109,0.000028,0.078666,0.00286,0.996897,0.446503,-0.004249,0.894772
5.71,0.000028,-0.000143,0.00011,0.072125,0.004566,0.997385,0.443264,-0.002936,0.896386
5.72,-0.000009,-0.000004,-0.000139,0.082597,0.000853,0.996583,0.439842,-0.001636,0.898074
5.73,-0.000048,0.000028,-0.000013,0.073732,-0.002558,0.997275,0.450746,0.00132,0.892651
5.74,-0.000032,-0.000236,0.000112,0.076655,-0.006597,0.997036,0.438989,-0.002939,0.898488
5.75,-0.000097,0.000047,-0.000107,0.077061,0.005103,0.997013,0.444867,0.008884,0.895553
5.76,0.000021,-0.000049,0.000124,0.074291,0.00255,0.997233,0.448372,0.001346,0.893846
5.77,-0.00012,-0.000083,0.000249,0.065796,-0.002121,0.997831,0.444645,-0.012014,0.895626
5.78,-0.000112,-0.00009,0.000029,0.0604,0.004457,0.998164,0.444056,0.002822,0.895995
5.79,-0.000129,0.000075,0.000204,0.057559,0.001634,0.998341,0.442338,-0.005317,0.896833
5.8,-0.000101,-0.000179,0.000156,0.047806,-0.003239,0.998851,0.441948,0.004003,0.897032
5.81,0.000057,0.000043,0.000155,0.063319,0.003308,0.997988,0.437243,-0.000362,0.899343
5.82,-0.000115,-0.000043,-0.000067,0.046869,-0.002241,0.998899,0.442087,-0.000204,0.896972
5.83,-0.000163,0.000057,-0.000005,0.04605,0.002168,0.998937,0.441921,0.003907,0.897046
5.84,0.000159,-0.000022,-0.000002,0.049035,0.005956,0.998779,0.442796,-0.007893,0.896587
5.85,0.00003,0.000129,0.000096,0.043715,0.001251,0.999043,0.447158,0.005693,0.894437
5.86,-0.000146,0.000004,0.000174,0.041553,-0.000322,0.999136,0.439933,0.001381,0.89803
5.87,-0.000082,-0.000096,0.000142,0.038501,0.000446,0.999258,0.443859,-0.002524,0.896093
5.88,-0.000027,-0.000125,0.00002,0.04056,0.004573,0.999167,0.440962,-0.011259,0.897455
5.89,-0.000105,-0.000003,0.000063,0.030257,0.005243,0.999528,0.444569,-0.008638,0.895703
5.9,0.000061,0.000033,-0.000083,0.03425,-0.006569,0.999392,0.44369,-0.008101,0.896144
5.91,-0.000004,0.00005,0.000093,0.032856,-0.002707,0.999456,0.439786,-0.002113,0.8981
5.92,0.00005,-0.000077,-0.000029,0.013594,-0.000242,0.999908,0.447546,0.001676,0.894259
5.93,0.000042,-0.000122,-0.000135,0.023562,-0.001268,0.999722,0.440066,-0.001393,0.897964
5.94,0.00005,-0.000092,0.000027,0.020599,0.002038,0.999786,0.445128,0.007265,0.895438
5.95,-0.000161,-0.000144,-0.000047,0.017712,0.012885,0.99976,0.434453,-0.000981,0.900694
5.96,-0.000071,0.000004,-0.000147,0.003663,0.001068,0.999993,0.4491,-0.001991,0.893479
5.97,0.000026,-0.000132,-0.000039,0.014785,-0.002535,0.999887,0.439698,-0.008536,0.898105
5.98,0.00002,-0.000035,-0.00008,-0.001312,0.003168,0.999994,0.447139,-0.003895,0.894456
5.99,0.000122,-0.000104,0.000075,0.000364,-0.002807,0.999996,0.445455,-0.002468,0.895301
6,-0.000022,0.000094,0.000014,0.00837,0.007294,0.999938,0.43563,-0.001766,0.900124
6.01,0.000049,-0.000093,0.004458,0.000475,0.008318,0.999965,0.445763,0.000525,0.895151
6.02,-0.000106,-0.00006,0.013138,-0.00218,-0.004148,0.999989,0.438206,-0.006593,0.89885
6.03,-0.000012,-0.000019,0.021779,0.000811,0.000045,1,0.442644,-0.007405,0.896667
6.04,-0.000008,-0.0001,0.030256,-0.00451,0.004716,0.999979,0.441912,0.000065,0.897058
6.05,-0.000143,0.00007,0.038902,-0.002591,-0.008342,0.999962,0.435997,-0.005143,0.899933
6.06,-0.000089,-0.000083,0.047413,-0.002574,-0.002449,0.999994,0.43647,0.000289,0.899719
6.07,-0.000038,-0.000114,0.056043,-0.003093,-0.000716,0.999995,0.449179,-0.007987,0.893406
6.08,-0.000218,-0.000066,0.064548,0.002856,-0.001407,0.999995,0.439612,-0.005272,0.898172
6.09,-0.000063,-0.000002,0.073059,-0.001394,0.002132,0.999997,0.446155,0.004549,0.894944
6.1,0.000012,-0.000044,0.081684,0.000154,0.000003,1,0.43365,-0.003159,0.901076
6.11,-0.000159,-0.000132,0.090338,-0.00675,-0.002957,0.999973,0.447174,-0.004396,0.894436
6.12,-0.000124,-0.000023,0.098954,0.00007,-0.005312,0.999986,0.448131,-0.015655,0.893831
6.13,0.000051,0.000107,0.107381,-0.003541,0.000032,0.999994,0.441967,-0.009036,0.896986
6.14,-0.000134,0.00006,0.115967,-0.008081,-0.007197,0.999941,0.44409,0.006288,0.89596
6.15,0.000059,-0.000028,0.124564,0.012033,0.004731,0.999916,0.436571,0.000495,0.899669
6.16,0.000034,0.000034,0.133011,-0.000035,0.007751,0.99997,0.439071,-0.00226,0.898449
6.17,-0.000005,-0.000008,0.141479,0.000244,0.005294,0.999986,0.448481,-0.002067,0.89379
6.18,0.000047,-0.000073,0.150087,-0.010821,-0.005927,0.999924,0.447641,-0.005394,0.894197
6.19,-0.000049,0.000057,0.158388,0.00434,0.000832,0.99999,0.444877,-0.014845,0.895469
6.2,-0.000061,0.000149,0.166812,-0.000949,0.001827,0.999998,0.450692,-0.021285,0.892426
6.21,-0.000151,-0.000091,0.175236,0.003684,-0.004869,0.999981,0.445462,-0.005611,0.895283
6.22,0.000149,-0.000011,0.18375,-0.00177,-0.004672,0.999988,0.442833,-0.010307,0.896545
6.23,-0.000127,0.000002,0.192112,-0.004731,-0.000776,0.999989,0.43886,-0.00249,0.898552
6.24,0.000118,-0.000089,0.200471,-0.00254,0.000258,0.999997,0.440671,-0.007627,0.897636
6.25,-0.000013,-0.000118,0.208758,-0.002058,0.005917,0.99998,0.452494,-0.01419,0.891654
6.26,-0.000062,-0.000232,0.217132,-0.001201,-0.002522,0.999996,0.430463,-0.011893,0.90253
6.27,0.000008,-0.000067,0.225258,-0.001425,0.006716,0.999976,0.450755,-0.014248,0.892534
6.28,0.00009,-0.000005,0.233734,-0.004713,0.012193,0.999915,0.438428,-0.012897,0.898674
6.29,0.000084,-0.000074,0.241962,-0.000929,0.004267,0.99999,0.441559,-0.016162,0.897087
6.3,-0.00006,-0.000034,0.250102,-0.001255,0.004167,0.999991,0.438097,-0.014,0.898819
6.31,-0.00004,0.000069,0.258312,-0.002356,0.004489,0.999987,0.442586,-0.015459,0.896593
6.32,-0.000053,-0.000053,0.266494,-0.000527,-0.000651,1,0.441093,-0.01853,0.89727
6.33,-0.000118,-0.000073,0.274593,-0.007482,-0.003593,0.999966,0.440052,-0.021725,0.897709
6.34,-0.000089,-0.000039,0.282648,-0.010349,-0.014541,0.999841,0.449641,-0.015899,0.893068
6.35,0.000135,0.000087,0.290813,0.004345,0.003148,0.999986,0.432771,-0.027149,0.901095
6.36,-0.000044,0.000162,0.298842,-0.013595,-0.000859,0.999907,0.441261,-0.030858,0.896848
6.37,-0.000047,-0.000002,0.306849,-0.004438,-0.006589,0.999968,0.436991,-0.02747,0.899046
6.38,0.000084,-0.00003,0.31498,-0.000071,0.003029,0.999995,0.448766,-0.027003,0.893241
6.39,-0.000116,0.000032,0.322649,0.006029,0.00331,0.999976,0.443583,-0.027998,0.895796
6.4,0.000119,-0.000058,0.330636,-0.002004,0.003394,0.999992,0.433771,-0.027326,0.900609
6.41,0.000041,0.000081,0.338412,0.004618,0.005568,0.999974,0.435069,-0.036749,0.899647
6.42,-0.00007,-0.00015,0.346352,-0.006451,0.002073,0.999977,0.44055,-0.030094,0.897224
6.43,-0.000048,-0.000059,0.354073,0.004237,-0.007872,0.99996,0.445551,-0.023116,0.894958
6.44,-0.000073,-0.000094,0.361933,-0.000494,0.006849,0.999976,0.436236,-0.043288,0.89879
6.45,0.000093,-0.000197,0.369592,0.004302,0.000624,0.999991,0.446851,-0.041753,0.893633
6.46,-0.000076,0.000014,0.377193,0.001524,-0.008129,0.999966,0.435706,-0.031755,0.899529
6.47,-0.000052,-0.000119,0.384969,0.001175,0.006201,0.99998,0.4445,-0.04567,0.894614
6.48,-0.000031,-0.000043,0.392531,-0.001496,-0.006394,0.999978,0.449154,-0.041887,0.892472
6.49,-0.000061,-0.000164,0.400098,-0.000691,0.006514,0.999979,0.436486,-0.046438,0.898512
6.5,-0.000014,-0.000042,0.407636,-0.007088,-0.01167,0.999907,0.442366,-0.041781,0.895861
6.51,0.000067,-0.000124,0.414941,0.001268,-0.004937,0.999987,0.434653,-0.043229,0.89956
6.52,0.000096,0.000095,0.422358,0.005894,0.003626,0.999976,0.436241,-0.051337,0.898364
6.53,-0.000142,-0.000084,0.429746,0.001655,0.000716,0.999998,0.449544,-0.052969,0.891686
6.54,-0.000178,-0.000026,0.436997,0.002708,0.002812,0.999992,0.44234,-0.060142,0.894828
6.55,-0.000145,0.000051,0.444321,0.001078,-0.003728,0.999992,0.442036,-0.054219,0.895357
6.56,-0.000046,0.000026,0.451675,0.003507,0.009553,0.999948,0.441027,-0.065344,0.895112
6.57,-0.000069,-0.000025,0.458706,0.002625,0.001277,0.999996,0.439004,-0.05688,0.896683
6.58,0.000113,0.000028,0.465805,0.000315,-0.006087,0.999981,0.432641,-0.053488,0.899978
6.59,-0.000039,0.000034,0.473016,0.002322,0.000863,0.999997,0.435561,-0.058539,0.898254
6.6,0.00012,0.000091,0.479947,-0.001358,-0.002907,0.999995,0.43457,-0.066088,0.89821
6.61,-0.000047,-0.000141,0.486984,-0.001473,0.001754,0.999997,0.439141,-0.065525,0.896026
6.62,-0.000026,0.000207,0.493885,0.006303,-0.005164,0.999967,0.441826,-0.073356,0.894096
6.63,-0.000222,-0.000087,0.500747,-0.005529,0.006224,0.999965,0.437932,-0.0729,0.896048
6.64,-0.000149,-0.000104,0.507511,0.006667,-0.002529,0.999975,0.438682,-0.070164,0.895899
6.65,-0.00001,-0.000043,0.514215,-0.002738,-0.001148,0.999996,0.439999,-0.07323,0.895007
6.66,0.000029,-0.000076,0.520942,0.000418,-0.000757,1,0.444576,-0.072198,0.892827
6.67,-0.00016,-0.000097,0.527679,0.005967,0.004288,0.999973,0.439026,-0.07908,0.894987
6.68,-0.000181,-0.000035,0.534263,-0.009405,0.000548,0.999956,0.430808,-0.085168,0.898416
6.69,-0.000072,-0.000008,0.540623,0.003363,0.003101,0.99999,0.432337,-0.092209,0.896985
6.7,0.000075,0.000067,0.547201,0.002872,-0.0033,0.99999,0.429891,-0.096051,0.897757
6.71,-0.000193,-0.00012,0.553666,-0.003852,-0.004192,0.999984,0.433097,-0.096222,0.896197
6.72,0.00011,-0.000003,0.56003,0.001164,-0.00514,0.999986,0.427926,-0.084903,0.899817
6.73,-0.000092,-0.000045,0.566199,-0.001874,0.008744,0.99996,0.434455,-0.095334,0.895634
6.74,-0.000003,-0.000162,0.572498,-0.001601,-0.003568,0.999992,0.424487,-0.096919,0.900232
6.75,0.000076,-0.000129,0.578451,0.002174,0.005967,0.99998,0.430202,-0.100706,0.897098
6.76,-0.000009,-0.000086,0.584452,-0.004484,0.001055,0.999989,0.431539,-0.102246,0.896281
6.77,0.000031,-0.000015,0.590644,-0.013506,0.000619,0.999909,0.433285,-0.108258,0.894731
6.78,0.000145,-0.000017,0.596581,-0.003177,0.000254,0.999995,0.438618,-0.101661,0.892905
6.79,-0.000031,-0.000119,0.602476,-0.001316,0.007677,0.99997,0.426467,-0.114789,0.89719
6.8,-0.000006,-0.000077,0.608333,0.007548,0.001051,0.999971,0.426085,-0.099062,0.899243
6.81,0.000106,0.000046,0.614205,0.008793,-0.003127,0.999956,0.432631,-0.12067,0.893459
6.82,0.000007,0.000014,0.619958,0.000653,0.001448,0.999999,0.431525,-0.127795,0.893003
6.83,-0.000041,0.000133,0.625376,0.00059,0.004047,0.999992,0.42075,-0.129669,0.897862
6.84,-0.000062,-0.000149,0.630988,0.002449,-0.005183,0.999984,0.429653,-0.119729,0.895021
6.85,0.000006,0.000098,0.63645,0.004878,-0.001063,0.999988,0.420806,-0.119876,0.899195
6.86,-0.000039,-0.00006,0.641863,-0.00017,0.002736,0.999996,0.423643,-0.121152,0.897691
6.87,-0.000143,-0.000023,0.647126,-0.005046,0.00463,0.999977,0.41881,-0.128122,0.89899
6.88,-0.00003,-0.000027,0.652499,-0.006459,-0.011138,0.999917,0.417719,-0.131467,0.899015
6.89,-0.000128,-0.000149,0.657927,-0.008794,0.000554,0.999961,0.416584,-0.134539,0.899087
6.9,-0.000157,0.000107,0.662951,0.009019,-0.006291,0.99994,0.410022,-0.139122,0.901403
6.91,-0.000071,-0.00013,0.668052,-0.00606,-0.005243,0.999968,0.426292,-0.144148,0.893026
6.92,0.000111,-0.00011,0.672924,-0.004322,0.008922,0.999951,0.417048,-0.152827,0.895944
6.93,0.000052,0.000001,0.67804,-0.003881,0.011385,0.999928,0.414283,-0.156332,0.896622
6.94,-0.000089,0.000019,0.682598,-0.002011,-0.001201,0.999997,0.423416,-0.149768,0.89347
6.95,0.000143,-0.000092,0.68728,0.002849,0.005784,0.999979,0.421545,-0.152386,0.893912
6.96,-0.00005,-0.000041,0.692331,-0.002611,-0.002075,0.999994,0.413002,-0.152368,0.897894
6.97,-0.000069,-0.00003,0.696831,-0.006764,-0.002059,0.999975,0.412809,-0.159657,0.896715
6.98,0.000099,-0.000034,0.701408,0.001324,0.003827,0.999992,0.411858,-0.163734,0.896418
6.99,0.000006,-0.000055,0.705786,0.001184,-0.004806,0.999988,0.419524,-0.172606,0.891183
7,-0.000037,-0.000109,0.710269,0.00168,0.002582,0.999995,0.40705,-0.168218,0.897782
7.01,-0.00016,0.000074,0.714553,0.00245,-0.001502,0.999996,0.407875,-0.16889,0.897282
7.02,-0.000048,-0.000095,0.718678,0.001281,-0.002376,0.999996,0.408287,-0.171006,0.896693
7.03,0.000002,0.000036,0.722872,0.003868,0.001618,0.999991,0.403878,-0.180734,0.896782
7.04,0.000047,-0.000077,0.726937,-0.00259,0.00703,0.999972,0.40167,-0.184653,0.896975
7.05,-0.000176,0.000038,0.73092,0.004555,-0.003492,0.999984,0.402046,-0.194312,0.894763
7.06,-0.000076,0.000073,0.734877,0.00605,-0.000397,0.999982,0.405699,-0.193744,0.893237
7.07,-0.000285,-0.000025,0.73852,0.007062,0.005421,0.99996,0.403592,-0.185709,0.895894
7.08,0.000054,0.000189,0.74235,0.009127,-0.007575,0.99993,0.399383,-0.193828,0.89606
7.09,-0.000033,-0.000051,0.746093,-0.002942,0.006937,0.999972,0.399141,-0.192005,0.89656
7.1,0.000017,0.000084,0.749561,-0.002588,0.000473,0.999997,0.39519,-0.203993,0.895663
7.11,0.000098,-0.00011,0.753175,0.002317,0.00107,0.999997,0.395277,-0.199647,0.896603
7.12,0.000062,0.000034,0.756489,0.009369,0.000379,0.999956,0.396656,-0.199851,0.895948
7.13,-0.000101,-0.000069,0.759904,-0.000741,-0.000392,1,0.397661,-0.207458,0.893771
7.14,0.000061,-0.000141,0.763204,0.003208,0.003371,0.999989,0.386339,-0.210329,0.898055
7.15,0.000014,0.00002,0.766374,0.002152,0.001091,0.999997,0.388023,-0.221758,0.894573
7.16,0.000093,0.000014,0.769495,-0.00186,-0.004388,0.999989,0.391883,-0.222677,0.892661
7.17,0.00001,0.000128,0.772256,-0.000764,-0.00038,1,0.393555,-0.215618,0.893657
7.18,0.000072,-0.000051,0.775315,-0.001611,0.00499,0.999986,0.380258,-0.222315,0.897764
7.19,-0.000124,-0.000192,0.778139,-0.004789,0.006205,0.999969,0.381167,-0.224513,0.896831
7.2,-0.000099,0.000014,0.780791,-0.003737,-0.001729,0.999992,0.371792,-0.229843,0.899413
7.21,0.000085,-0.000005,0.783559,0.001478,0.005719,0.999983,0.381743,-0.229353,0.89536
7.22,-0.000101,-0.000097,0.786058,0.00188,0.002639,0.999995,0.373535,-0.233622,0.897715
7.23,-0.000087,-0.000028,0.78863,0.00295,0.001934,0.999994,0.376472,-0.235438,0.896012
7.24,-0.000163,-0.000052,0.790971,0.004132,0.001428,0.99999,0.380914,-0.235575,0.894097
7.25,-0.000025,0.000134,0.793419,0.001328,-0.001451,0.999998,0.365243,-0.242565,0.898755
7.26,-0.000067,-0.00017,0.79547,0.002796,0.004908,0.999984,0.371128,-0.252345,0.893637
7.27,-0.000187,0.000035,0.797669,-0.00641,-0.008131,0.999946,0.368745,-0.243412,0.897094
7.28,-0.000034,-0.000083,0.799798,-0.003445,0.000773,0.999994,0.366595,-0.25062,0.89599
7.29,0.000083,-0.000088,0.801727,0.006289,-0.003197,0.999975,0.353661,-0.256404,0.899545
7.3,-0.00011,0.000048,0.803546,-0.004186,-0.001654,0.99999,0.360008,-0.266492,0.894079
7.31,-0.000138,-0.00015,0.805303,-0.002569,-0.004723,0.999986,0.363317,-0.272117,0.89104
7.32,0.000002,0.000196,0.807042,0.000681,-0.002889,0.999996,0.352187,-0.268799,0.8965
7.33,0.000044,-0.000007,0.808646,-0.001514,0.001377,0.999998,0.35294,-0.266533,0.89688
7.34,-0.000064,-0.000049,0.810207,0.00768,-0.004548,0.99996,0.354021,-0.263382,0.897384
7.35,0.000129,-0.000195,0.811737,-0.009797,-0.009834,0.999904,0.349166,-0.272367,0.896604
7.36,-0.000011,-0.000079,0.813064,0.004212,-0.000984,0.999991,0.333339,-0.280446,0.900131
7.37,0.000037,-0.000015,0.814346,-0.003518,-0.002697,0.99999,0.347614,-0.274829,0.896456
7.38,0.000021,-0.000206,0.815607,0.006877,-0.009637,0.99993,0.353603,-0.278539,0.892962
7.39,0.000159,0.000057,0.816646,0.000945,0.002095,0.999997,0.337203,-0.289903,0.895684
7.4,-0.000162,-0.000039,0.817477,0.000644,-0.00639,0.999979,0.337044,-0.290449,0.895567
7.41,-0.000091,0.000056,0.818378,-0.007854,0.00343,0.999963,0.334959,-0.288217,0.897069
7.42,-0.000051,-0.000195,0.819245,0.004698,-0.001717,0.999987,0.331658,-0.294547,0.89624
7.43,-0.000032,-0.00009,0.819916,0.003999,0.005595,0.999976,0.328141,-0.291536,0.898516
7.44,0.000125,-0.000134,0.820518,0.004353,-0.009008,0.99995,0.329166,-0.301246,0.89493
7.45,-0.00011,0.000076,0.821334,0.00046,-0.006983,0.999976,0.321432,-0.295056,0.899791
7.46,-0.00001,-0.000091,0.821564,0.006685,0.000076,0.999978,0.331253,-0.302607,0.8937
7.47,0.000053,-0.000108,0.822089,0.007512,0.002294,0.999969,0.329863,-0.304945,0.89342
7.48,0.000084,-0.000023,0.822289,0.006707,-0.005213,0.999964,0.315327,-0.311744,0.896317
7.49,0.000026,0.000107,0.822321,0.005573,0.000606,0.999984,0.318163,-0.310207,0.895848
7.5,0.000064,-0.000061,0.822436,0.001438,0.00102,0.999998,0.316225,-0.312026,0.895903
7.51,-0.00003,-0.000047,0.822417,-0.002035,-0.001694,0.999996,0.321609,-0.319963,0.891174
7.52,-0.000179,-0.000111,0.82254,0.00225,0.001909,0.999996,0.306606,-0.319669,0.896551
7.53,0.000132,0.000028,0.822336,0.00609,-0.011995,0.99991,0.303284,-0.324982,0.895771
7.54,-0.000085,-0.000035,0.821987,0.004544,-0.002054,0.999988,0.311072,-0.320763,0.89462
7.55,-0.000134,-0.000115,0.82161,0.007698,0.003865,0.999963,0.302029,-0.325482,0.896013
7.56,-0.000067,-0.000121,0.821185,-0.001145,-0.00562,0.999984,0.294549,-0.329764,0.896938
7.57,-0.000062,0.00006,0.82061,0.004973,-0.001203,0.999987,0.301681,-0.332528,0.89354
7.58,-0.000066,-0.000018,0.819964,-0.001014,0.009274,0.999956,0.293402,-0.336659,0.894749
7.59,-0.000098,-0.000064,0.819324,0.001077,0.002694,0.999996,0.295565,-0.329569,0.896674
7.6,0.000017,0.000084,0.8183,0.003339,-0.000163,0.999994,0.282107,-0.336477,0.898443
7.61,-0.000074,-0.000065,0.817563,0.002451,0.002847,0.999993,0.268057,-0.344004,0.899893
7.62,-0.000079,-0.000073,0.816626,-0.002809,-0.001153,0.999995,0.279888,-0.336881,0.898985
7.63,-0.000024,-0.00013,0.815595,-0.00218,-0.005254,0.999984,0.28028,-0.34169,0.897046
7.64,0.000048,-0.000079,0.814382,-0.002392,0.002938,0.999993,0.282722,-0.349323,0.893332
7.65,-0.000104,0.00007,0.813032,-0.001978,0.009053,0.999957,0.267574,-0.351398,0.897175
7.66,-0.00011,-0.000061,0.811637,-0.004487,0.005831,0.999973,0.265303,-0.351562,0.897785
7.67,-0.000023,-0.000013,0.810271,-0.003953,0.003161,0.999987,0.26641,-0.345577,0.899779
7.68,-0.000088,-0.000348,0.808751,-0.00031,0.002717,0.999996,0.262821,-0.357985,0.895976
7.69,-0.000205,-0.000007,0.807227,-0.002543,-0.002409,0.999994,0.260356,-0.35342,0.898504
7.7,-0.000016,-0.000063,0.805411,0.005851,-0.008634,0.999946,0.259934,-0.358804,0.89649
7.71,-0.000051,-0.000077,0.803585,0.001471,0.006667,0.999977,0.258543,-0.366925,0.8936
7.72,-0.00012,0.000075,0.801755,0.005584,-0.00417,0.999976,0.249618,-0.361578,0.898305
7.73,0.000044,-0.000051,0.799796,-0.001879,-0.01186,0.999928,0.250906,-0.367893,0.895377
7.74,-0.000054,0.000012,0.797808,0.001928,0.00421,0.999989,0.242229,-0.370645,0.896631
7.75,-0.000019,-0.000087,0.795526,-0.005627,0.003456,0.999978,0.241736,-0.369011,0.897438
7.76,0.000105,-0.000053,0.793339,0.005096,0.006932,0.999963,0.23652,-0.378331,0.894944
7.77,0.000088,0.000066,0.791095,-0.000798,-0.003491,0.999994,0.23874,-0.372043,0.896988
7.78,-0.000074,0.000177,0.78868,0.000008,0.003542,0.999994,0.231537,-0.379526,0.89574
7.79,0.000008,-0.000044,0.786033,-0.000057,0.009021,0.999959,0.23169,-0.372192,0.898773
7.8,-0.000156,0.000007,0.783615,-0.000065,-0.002587,0.999997,0.231597,-0.381253,0.894991
7.81,-0.00006,-0.000131,0.780793,-0.001291,-0.003286,0.999994,0.226682,-0.38131,0.896224
7.82,-0.000068,-0.000156,0.778251,0.001431,0.000597,0.999999,0.22604,-0.384393,0.895069
7.83,0.000061,0.000218,0.775416,0.002512,-0.003886,0.999989,0.218947,-0.389461,0.894641
7.84,-0.000091,-0.000105,0.772121,0.000418,-0.00928,0.999957,0.215734,-0.388191,0.895972
7.85,-0.000091,-0.000044,0.769505,0.004684,-0.003057,0.999984,0.218347,-0.392317,0.893539
7.86,0.000014,0.000023,0.766352,-0.002029,0.000618,0.999998,0.204301,-0.39125,0.897321
7.87,0.000018,0.000098,0.76307,-0.001357,0.00828,0.999965,0.207389,-0.38889,0.897638
7.88,-0.000079,-0.00015,0.76005,-0.002175,-0.000813,0.999997,0.208786,-0.390778,0.896494
7.89,0.000074,0.000037,0.756467,0.007179,0.011488,0.999908,0.202616,-0.39841,0.894548
7.9,-0.000024,-0.000049,0.753158,-0.000737,0.00316,0.999995,0.199079,-0.394603,0.897026
7.91,-0.000056,0.000017,0.749613,0.004246,-0.00505,0.999978,0.18706,-0.395931,0.899026
7.92,0.000035,-0.000008,0.746037,-0.010482,0.00263,0.999942,0.197692,-0.399526,0.895152
7.93,-0.000049,-0.000067,0.742466,0.012126,-0.004331,0.999917,0.186796,-0.406744,0.894241
7.94,-0.000063,-0.000003,0.738612,0.003233,-0.004502,0.999985,0.197044,-0.403817,0.893368
7.95,-0.000169,0.00005,0.734725,-0.004069,-0.00564,0.999976,0.177247,-0.40175,0.898432
7.96,0.00002,0.000008,0.730763,-0.001011,-0.005117,0.999986,0.187492,-0.403051,0.895766
7.97,-0.000122,-0.000074,0.726845,0.001449,-0.008279,0.999965,0.178688,-0.409133,0.894807
7.98,-0.000143,0.000036,0.722826,0.001242,-0.004019,0.999991,0.172653,-0.403772,0.89842
7.99,-0.000006,-0.000066,0.718724,-0.004417,-0.006579,0.999969,0.170663,-0.408426,0.896695
8,-0.000105,-0.000031,0.71452,-0.00179,0.012252,0.999923,0.165172,-0.411208,0.896452
8.01,-0.000036,-0.000069,0.710068,-0.002863,0.002739,0.999992,0.167715,-0.406502,0.898125
8.02,-0.000025,0.000001,0.705756,0.006574,-0.004784,0.999967,0.164254,-0.413181,0.895713
8.03,-0.000107,0.000019,0.701534,-0.014084,-0.001086,0.9999,0.169052,-0.415908,0.893556
8.04,-0.000066,0.000001,0.696812,0.003522,-0.006959,0.99997,0.160261,-0.419548,0.893474
8.05,-0.000263,-0.000018,0.692102,-0.010694,-0.003694,0.999936,0.158591,-0.405935,0.900036
8.06,0.000081,-0.000051,0.687405,0.00134,-0.003736,0.999992,0.153036,-0.419464,0.894779
8.07,-0.000059,-0.000014,0.682658,-0.000556,-0.001649,0.999998,0.152726,-0.410725,0.898877
8.08,-0.000044,-0.000147,0.677846,0.005718,-0.006505,0.999962,0.134439,-0.415765,0.899481
8.09,0.000028,0.000143,0.673012,0.003747,0.006537,0.999972,0.139213,-0.427127,0.893411
8.1,-0.000016,0.000075,0.66805,-0.009014,-0.001898,0.999958,0.14343,-0.420296,0.89598
8.11,0.000106,0.000066,0.662889,-0.006906,-0.00345,0.99997,0.13373,-0.423959,0.895754
8.12,-0.000017,-0.000013,0.65779,0.000184,0.001053,0.999999,0.139371,-0.422237,0.895707
8.13,-0.000022,-0.000097,0.652373,-0.004505,0.005451,0.999975,0.13631,-0.414388,0.899835
8.14,-0.000098,-0.000205,0.647284,-0.004798,-0.002875,0.999984,0.129335,-0.423824,0.896463
8.15,-0.000039,-0.000175,0.641988,0.002991,0.007049,0.999971,0.12593,-0.422387,0.897625
8.16,0.000036,-0.00002,0.636653,-0.001121,0.008774,0.999961,0.120712,-0.416333,0.901163
8.17,0.000124,-0.000134,0.631108,0.008946,0.000929,0.99996,0.119699,-0.425787,0.896871
8.18,-0.000001,0.000008,0.62554,0.003378,0.001487,0.999993,0.122022,-0.431097,0.894017
8.19,-0.000102,-0.00008,0.619759,0.006756,0.012645,0.999897,0.121308,-0.435173,0.892137
8.2,-0.000105,-0.000037,0.614008,-0.003984,-0.002574,0.999989,0.104138,-0.41765,0.902621
8.21,-0.000131,0.000022,0.608366,0.004005,-0.007175,0.999966,0.11219,-0.43283,0.894467
8.22,-0.000006,-0.000194,0.602474,0.001958,0.003722,0.999991,0.109043,-0.420609,0.900665
8.23,-0.000088,-0.000026,0.596595,0.000697,0.001332,0.999999,0.111898,-0.425243,0.898136
8.24,0.000042,-0.000034,0.590687,0.001836,-0.002917,0.999994,0.103059,-0.426721,0.898492
8.25,-0.000038,0.000033,0.584618,0.006918,0.006753,0.999953,0.099533,-0.438087,0.893405
8.26,0.000059,0.000011,0.578583,0.002614,-0.004595,0.999986,0.095688,-0.439063,0.893346
8.27,-0.000036,0.000017,0.572504,0.003693,-0.007099,0.999968,0.094995,-0.436793,0.894532
8.28,0.000043,0.000004,0.566276,0.006125,-0.003878,0.999974,0.094802,-0.434619,0.895611
8.29,-0.000029,0.000081,0.559918,-0.000401,-0.000736,1,0.094571,-0.439342,0.893328
8.3,-0.000221,0.000088,0.55359,-0.000697,-0.007796,0.999969,0.089433,-0.4331,0.896898
8.31,-0.000142,-0.000046,0.547103,0.008975,-0.000346,0.99996,0.087876,-0.431274,0.897931
8.32,0.000144,0.000015,0.540583,0.007837,0.001569,0.999968,0.074634,-0.432481,0.898549
8.33,0.000008,-0.000063,0.534367,-0.002895,0.005492,0.999981,0.076971,-0.442018,0.893698
8.34,-0.000131,-0.000225,0.527628,0.004338,0.003178,0.999986,0.078936,-0.442536,0.89327
8.35,-0.00007,-0.000065,0.520799,0.005006,-0.000109,0.999987,0.08291,-0.439199,0.894556
8.36,-0.000002,0.000117,0.514126,-0.001524,-0.003469,0.999993,0.069329,-0.433944,0.898268
8.37,0.000063,-0.000078,0.507747,-0.002257,-0.011534,0.999931,0.07233,-0.437316,0.896394
8.38,-0.000001,-0.000045,0.500833,0.004063,-0.004623,0.999981,0.061477,-0.435949,0.897869
8.39,0.000006,-0.00008,0.493939,-0.006687,0.001208,0.999977,0.059835,-0.431097,0.90032
8.4,-0.000084,-0.000185,0.48714,0.001559,0.002114,0.999997,0.073784,-0.440653,0.89464
8.41,-0.00007,-0.000082,0.480024,0.004041,-0.002548,0.999989,0.061004,-0.437053,0.897364
8.42,-0.000176,-0.000147,0.47293,0.007138,-0.004674,0.999964,0.063053,-0.43865,0.896443
8.43,-0.000085,-0.000022,0.465999,0.008078,0.006355,0.999947,0.054508,-0.445023,0.893859
8.44,-0.000081,0.000014,0.458831,-0.003166,0.002755,0.999991,0.058915,-0.43634,0.897851
8.45,-0.000134,-0.000009,0.451522,0.000344,-0.006909,0.999976,0.059565,-0.441653,0.895207
8.46,0.000053,0.000011,0.444383,-0.008118,0.000645,0.999967,0.063913,-0.431248,0.899967
8.47,-0.000156,-0.000019,0.437042,-0.003436,-0.008029,0.999962,0.046576,-0.443935,0.894848
8.48,0.000022,-0.000039,0.429718,-0.009821,0.009123,0.99991,0.052355,-0.437643,0.897623
8.49,0.000041,0.000034,0.42237,-0.006557,0.001629,0.999977,0.038452,-0.438075,0.898116
8.5,0.000062,-0.000055,0.414982,0.005169,0.006625,0.999965,0.049379,-0.441197,0.896051
8.51,-0.000029,-0.000094,0.407511,-0.000358,-0.002893,0.999996,0.043127,-0.445157,0.894414
8.52,-0.000053,0.000105,0.400177,0.004754,0.003062,0.999984,0.04878,-0.438001,0.89765
8.53,-0.000062,0.000112,0.392495,-0.008578,-0.003932,0.999955,0.03948,-0.440898,0.896688
8.54,-0.000006,0.000048,0.384934,-0.00278,-0.005394,0.999982,0.034228,-0.445859,0.894449
8.55,0.000171,-0.000007,0.377171,0.00537,0.009236,0.999943,0.037965,-0.446845,0.893805
8.56,0.000074,-0.000065,0.369575,-0.000541,0.000448,1,0.032405,-0.442713,0.896078
8.57,-0.000301,0.000059,0.361959,-0.004337,0.004076,0.999982,0.041163,-0.426776,0.90342
8.58,0.00003,0.000057,0.354281,-0.002467,-0.009685,0.99995,0.038889,-0.444869,0.894751
8.59,-0.000043,0.000053,0.346275,-0.007112,-0.005912,0.999957,0.030423,-0.440647,0.897165
8.6,-0.00007,0.000064,0.338543,-0.005343,0.001246,0.999985,0.028663,-0.445281,0.894932
8.61,-0.000156,0.000003,0.330625,0.010003,-0.006262,0.99993,0.026451,-0.443488,0.89589
8.62,-0.000111,0.000009,0.322701,0.002876,0.000579,0.999996,0.035859,-0.43967,0.897443
8.63,-0.000176,-0.000126,0.314951,-0.001502,0.004806,0.999987,0.031383,-0.442188,0.896373
8.64,-0.000172,-0.000009,0.306875,0.006709,-0.006921,0.999954,0.020476,-0.442425,0.896572
8.65,0.000016,-0.000136,0.298786,-0.001161,0.002033,0.999997,0.023964,-0.441325,0.897027
8.66,-0.000027,0.000041,0.290717,0.0041,-0.006784,0.999969,0.015494,-0.438061,0.898812
8.67,-0.000141,0.000059,0.282797,0.002775,-0.009183,0.999954,0.021912,-0.436508,0.899433
8.68,-0.000007,-0.000082,0.274633,-0.009987,0.002895,0.999946,0.01332,-0.451672,0.892084
8.69,-0.00003,0.000044,0.266355,-0.000373,-0.001399,0.999999,0.015093,-0.434164,0.900707
8.7,-0.000029,-0.000043,0.258204,-0.0095,0.002553,0.999952,0.01555,-0.438318,0.898686
8.71,-0.000021,-0.000026,0.250074,0.005467,-0.000245,0.999985,0.005387,-0.437522,0.899192
8.72,-0.000005,-0.000152,0.241886,0.000895,0.009001,0.999959,0.022603,-0.449008,0.893242
8.73,-0.000002,-0.000004,0.23374,0.000446,0.002789,0.999996,0.02018,-0.440598,0.897478
8.74,-0.000144,-0.00016,0.225396,-0.00328,0.008488,0.999959,0.01463,-0.44217,0.896812
8.75,0,0.000156,0.217133,-0.005868,0.002667,0.999979,0.012787,-0.443621,0.896123
8.76,-0.000116,0.000042,0.208686,0.000454,0.005829,0.999983,0.009328,-0.442446,0.896746
8.77,-0.000169,0.000199,0.200446,0.009355,0.006056,0.999938,0.01161,-0.438233,0.898787
8.78,0.000023,0.00002,0.192212,0.002902,0.001634,0.999994,0.014358,-0.444311,0.895758
8.79,-0.000015,0.000078,0.183579,0.011651,-0.000252,0.999932,0.002569,-0.441207,0.897402
8.8,-0.000161,0.000096,0.175392,-0.000458,0.006455,0.999979,-0.000914,-0.452498,0.891765
8.81,0.000005,-0.000009,0.166853,0.000948,-0.00299,0.999995,0.009484,-0.447143,0.894412
8.82,-0.000099,0.000106,0.158453,0.007888,-0.002994,0.999964,-0.004312,-0.430618,0.902524
8.83,0.000005,0.000004,0.150027,0.004967,0.001793,0.999986,-0.001119,-0.447176,0.894445
8.84,0.000005,0.000036,0.141357,0.005223,-0.00636,0.999966,0.004129,-0.441572,0.897216
8.85,0.000005,0.000162,0.132922,0.002623,-0.014483,0.999892,0.00339,-0.436238,0.899825
8.86,-0.000051,0.000049,0.124544,-0.00006,0.011975,0.999928,0.001176,-0.441677,0.897173
8.87,0.000015,-0.00017,0.115983,-0.007296,0.00736,0.999946,0.005212,-0.436966,0.899463
8.88,-0.000143,-0.000101,0.107454,0.0004,0.005816,0.999983,0.000767,-0.442924,0.896559
8.89,-0.000065,0.000042,0.099136,-0.000112,0.005594,0.999984,0.002755,-0.438021,0.89896
8.9,0.000028,0.000034,0.090228,0.005429,-0.00135,0.999984,-0.001267,-0.443908,0.896071
8.91,-0.000096,-0.000122,0.081694,-0.006712,-0.006464,0.999957,-0.00498,-0.44448,0.895775
8.92,-0.000135,-0.000086,0.073148,-0.001015,0.001599,0.999998,-0.001018,-0.43868,0.898643
8.93,-0.000127,-0.000153,0.064465,-0.000207,-0.004829,0.999988,-0.001222,-0.439859,0.898066
8.94,0,-0.000023,0.056083,0.007224,-0.003643,0.999967,-0.000932,-0.437668,0.899136
8.95,0.000052,-0.000058,0.047456,0.008592,-0.003676,0.999956,0.00433,-0.440899,0.897546
8.96,-0.000165,0.000171,0.038901,-0.004994,-0.000002,0.999988,-0.001866,-0.438484,0.898737
8.97,-0.000058,-0.00013,0.030225,-0.002097,-0.008841,0.999959,-0.000734,-0.444538,0.89576
8.98,-0.000203,-0.000097,0.021649,-0.004756,-0.003962,0.999981,-0.006194,-0.4478,0.894112
8.99,-0.000033,-0.000072,0.013055,0.000841,0.010365,0.999946,0.007454,-0.435844,0.899991
9,-0.00013,-0.000004,0.004317,-0.000136,-0.005183,0.999987,-0.00482,-0.440121,0.897925
9.01,-0.000113,0.000012,-0.004339,-0.003749,-0.007363,0.999966,0.003862,-0.433634,0.901081
9.02,0.000127,-0.00008,-0.012691,-0.002017,0.002211,0.999996,0.010019,-0.437704,0.899063
9.03,-0.000135,0.000024,-0.021581,0.002021,0.007163,0.999972,-0.001181,-0.441127,0.897444
9.04,-0.000156,-0.000015,-0.030025,-0.001556,-0.008449,0.999963,0.006254,-0.441152,0.89741
9.05,-0.000151,0.000075,-0.038759,0.000982,0.005636,0.999984,0.004022,-0.433705,0.901046
9.06,-0.000028,0.000004,-0.047239,0.014704,-0.001102,0.999891,-0.006284,-0.44188,0.897052
9.07,-0.000196,0.000113,-0.055837,-0.004132,-0.004599,0.999981,0.006976,-0.447816,0.894098
9.08,-0.000077,-0.000118,-0.064624,0.00158,0.004094,0.99999,-0.00373,-0.436158,0.899862
9.09,-0.000158,0.000019,-0.073088,0.006196,0.008078,0.999948,0.005853,-0.439345,0.898299
9.1,-0.000138,-0.000075,-0.081497,0.004813,-0.000145,0.999988,-0.006978,-0.439162,0.898381
9.11,-0.000068,-0.00008,-0.090081,0.007031,-0.004468,0.999965,0.00376,-0.441171,0.897415
9.12,0.000001,-0.000025,-0.098808,0.003017,-0.000243,0.999995,0.004661,-0.441501,0.897249
9.13,-0.000175,-0.000131,-0.107341,-0.003096,-0.004552,0.999985,0.005812,-0.453107,0.891437
9.14,-0.000059,0.000002,-0.115784,-0.00279,0.007327,0.999969,0.009481,-0.447242,0.894363
9.15,-0.00002,-0.000009,-0.124441,-0.006237,0.001999,0.999979,0.012326,-0.443908,0.895987
9.16,-0.000227,-0.000074,-0.132943,-0.005695,0.007104,0.999959,0.005593,-0.443368,0.896322
9.17,-0.000096,-0.000053,-0.14146,0.005656,-0.004159,0.999975,0.008322,-0.444741,0.89562
9.18,-0.000136,-0.000037,-0.149818,0.009576,0.000048,0.999954,0.012814,-0.443184,0.896339
9.19,-0.000097,0.000015,-0.158308,0.001578,0.00997,0.999949,0.014476,-0.441541,0.897124
9.2,-0.000128,-0.000025,-0.166567,-0.003615,0.001402,0.999992,-0.003092,-0.44736,0.894349
9.21,-0.000098,0.000073,-0.175036,-0.003168,-0.002568,0.999992,0.007663,-0.435871,0.899976
9.22,0.000091,-0.0001,-0.183385,-0.002163,0.002741,0.999994,0.012584,-0.441581,0.897133
9.23,-0.000029,-0.000051,-0.191967,0.008341,-0.008311,0.999931,0.017762,-0.441224,0.897221
9.24,0.000013,-0.000024,-0.200326,-0.005569,0.003547,0.999978,0.013052,-0.445002,0.895435
9.25,0.000073,-0.000092,-0.208744,0.000233,-0.002434,0.999997,0.018481,-0.440174,0.897722
9.26,0.00003,0.000033,-0.216877,-0.008346,0.005199,0.999952,0.015092,-0.447364,0.894225
9.27,-0.000133,0.000066,-0.225226,0.000432,0.001894,0.999998,0.016922,-0.442765,0.896478
9.28,0.000114,-0.000138,-0.233519,0.009834,-0.000637,0.999951,0.016292,-0.438979,0.89835
9.29,-0.000064,-0.000167,-0.241846,-0.00808,-0.001739,0.999966,0.012426,-0.440734,0.897552
9.3,0.000059,-0.00007,-0.250065,-0.002925,0.006149,0.999977,0.011116,-0.443995,0.89596
9.31,0.000036,0.000058,-0.258107,0.000599,0.000663,1,0.018344,-0.438845,0.898375
9.32,-0.000108,-0.000034,-0.266267,-0.000857,-0.003028,0.999995,0.019725,-0.444089,0.895766
9.33,-0.000097,-0.000094,-0.274418,-0.001933,-0.00067,0.999998,0.026729,-0.450416,0.892419
9.34,0.000097,-0.000129,-0.28282,0.000599,0.00007,1,0.019876,-0.444898,0.89536
9.35,-0.000166,-0.000117,-0.290678,-0.005383,-0.004464,0.999976,0.021583,-0.448845,0.893349
9.36,0.000014,-0.000041,-0.298768,-0.003412,0.002686,0.999991,0.018633,-0.44901,0.893332
9.37,-0.000026,-0.000113,-0.306719,-0.00585,-0.007159,0.999957,0.033933,-0.447688,0.893546
9.38,-0.000095,0.000205,-0.314618,-0.00213,-0.005918,0.99998,0.025763,-0.443508,0.8959
9.39,-0.000112,-0.000116,-0.322667,0.000348,-0.004217,0.999991,0.035123,-0.442717,0.895973
9.4,-0.000183,-0.000092,-0.330598,0.004441,-0.003608,0.999984,0.030018,-0.448764,0.893146
9.41,0.000038,-0.000066,-0.338471,-0.000698,0.003952,0.999992,0.020363,-0.446534,0.894535
9.42,-0.000156,-0.000131,-0.346238,0.006041,-0.001684,0.99998,0.032907,-0.442197,0.896314
9.43,-0.000058,0.00007,-0.354081,-0.000449,0.002708,0.999996,0.038402,-0.435046,0.899589
9.44,0.000053,-0.000006,-0.36178,0.006722,-0.003296,0.999972,0.036646,-0.433581,0.900369
9.45,-0.000215,-0.000141,-0.36943,-0.006135,0.001849,0.999979,0.040057,-0.446018,0.894127
9.46,0.000083,-0.000011,-0.377102,0.000415,0.004798,0.999988,0.043452,-0.437094,0.898365
9.47,-0.000075,-0.000061,-0.384859,0.000065,0.005324,0.999986,0.048611,-0.438266,0.89753
9.48,0.000046,0.000001,-0.392412,-0.005265,0.0011,0.999986,0.041551,-0.442246,0.895931
9.49,-0.000068,0.00002,-0.399911,-0.004692,0.006995,0.999965,0.057667,-0.445298,0.893523
9.5,-0.000112,0.000121,-0.40742,-0.004881,0.000857,0.999988,0.050386,-0.444945,0.894139
9.51,-0.000039,0.0001,-0.414812,-0.00065,0.001503,0.999999,0.053854,-0.43112,0.900686
9.52,-0.000047,0.000018,-0.422408,0.003277,0.001794,0.999993,0.056092,-0.44106,0.895723
9.53,-0.000095,-0.000226,-0.429575,-0.00469,0.000658,0.999989,0.058446,-0.439964,0.896112
9.54,-0.000205,0.000031,-0.437074,0.001779,-0.01029,0.999945,0.051413,-0.434152,0.899371
9.55,-0.000125,-0.000046,-0.444251,0.001975,0.003216,0.999993,0.049876,-0.44223,0.895514
9.56,0.000014,0.000126,-0.451466,0.001263,0.006506,0.999978,0.062928,-0.444495,0.893568
9.57,0.000037,-0.000081,-0.458609,-0.003482,0.007839,0.999963,0.060226,-0.440479,0.89574
9.58,-0.000026,-0.000069,-0.465803,-0.000474,-0.003213,0.999995,0.06932,-0.436463,0.897048
9.59,-0.000045,-0.000012,-0.472832,-0.001024,-0.003701,0.999993,0.064561,-0.449989,0.890697
9.6,-0.000084,-0.000093,-0.479822,-0.007014,-0.000397,0.999975,0.059794,-0.438701,0.896641
9.61,-0.000187,-0.000083,-0.48672,-0.001069,-0.002231,0.999997,0.069542,-0.441009,0.894805
9.62,-0.000276,-0.000089,-0.493709,-0.005722,-0.000719,0.999983,0.072392,-0.436655,0.896712
9.63,-0.000183,0.000198,-0.500856,-0.005148,0.007325,0.99996,0.071954,-0.436452,0.896846
9.64,0.000086,0.000107,-0.507355,-0.000022,-0.002023,0.999998,0.073224,-0.430966,0.899392
9.65,-0.000059,0.000002,-0.514263,-0.002013,0.001487,0.999997,0.078611,-0.441183,0.893968
9.66,0.000031,-0.000126,-0.520902,0.006596,-0.007216,0.999952,0.078325,-0.434324,0.897345
9.67,0.000047,-0.000126,-0.527546,-0.00211,0.001874,0.999996,0.080802,-0.436085,0.896271
9.68,-0.000025,-0.000146,-0.533991,0.001754,-0.002653,0.999995,0.080184,-0.437409,0.895681
9.69,-0.00001,-0.000161,-0.540617,0.005437,-0.002545,0.999982,0.085541,-0.436259,0.895746
9.7,-0.000107,-0.000086,-0.547067,0.004423,0.005734,0.999974,0.094578,-0.433539,0.896158
9.71,-0.000101,0.000055,-0.553535,0.001704,0.00278,0.999995,0.093322,-0.432865,0.896615
9.72,0.000046,-0.000033,-0.559739,0.002032,-0.001042,0.999997,0.095093,-0.437196,0.894325
9.73,-0.000087,-0.000073,-0.566193,-0.011424,-0.00865,0.999897,0.092696,-0.434005,0.896129
9.74,0.000011,0.000053,-0.572123,0.004056,0.00257,0.999988,0.097104,-0.425707,0.899636
9.75,0.000073,-0.000007,-0.57848,-0.001195,0.003156,0.999994,0.097856,-0.443886,0.890724
9.76,-0.000006,-0.000031,-0.584424,0.00029,0.007879,0.999969,0.105567,-0.43475,0.894342
9.77,0.000043,-0.000102,-0.590638,-0.002724,-0.000933,0.999996,0.105999,-0.423896,0.899487
9.78,0.00008,-0.000002,-0.596559,-0.00565,0.005595,0.999968,0.10896,-0.43246,0.895045
9.79,0.000064,-0.000063,-0.60246,-0.000413,0.006867,0.999976,0.112174,-0.43051,0.895588
9.8,-0.00008,-0.0002,-0.608189,0.009901,-0.000056,0.999951,0.111735,-0.420643,0.900319
9.81,-0.000145,-0.000078,-0.614093,0.005713,0.002887,0.99998,0.115544,-0.424822,0.897873
9.82,0.000024,-0.000035,-0.619722,-0.000339,-0.008921,0.99996,0.120362,-0.426775,0.896313
9.83,-0.000186,-0.000036,-0.62548,0.000242,0.005084,0.999987,0.126088,-0.426849,0.89549
9.84,-0.000013,0.000003,-0.630912,0.00069,-0.00768,0.99997,0.120017,-0.421173,0.899005
9.85,0.000139,0.000017,-0.636348,-0.000069,0.003699,0.999993,0.129647,-0.418362,0.89898
9.86,-0.000027,-0.000046,-0.641736,0.006244,-0.00379,0.999973,0.136663,-0.425538,0.894562
9.87,0.000057,-0.000142,-0.647078,0.004141,-0.004945,0.999979,0.122528,-0.422769,0.897916
9.88,0.000005,0.000055,-0.652409,0.000177,0.00009,1,0.127569,-0.422393,0.897391
9.89,-0.000148,-0.000131,-0.657497,0.00234,-0.002059,0.999995,0.138498,-0.422752,0.8956
9.9,-0.000017,-0.000152,-0.662761,0.004138,0.005155,0.999978,0.141654,-0.411647,0.900267
9.91,-0.000071,-0.00019,-0.668054,0.001943,0.002381,0.999995,0.140117,-0.417808,0.897666
9.92,-0.000179,-0.000005,-0.672847,-0.002413,-0.000176,0.999997,0.140684,-0.411909,0.900299
9.93,-0.000061,-0.000004,-0.677706,-0.000949,-0.003991,0.999992,0.15277,-0.415601,0.896625
9.94,-0.000223,-0.000055,-0.682672,-0.009771,-0.000345,0.999952,0.150968,-0.413354,0.897968
9.95,-0.000147,-0.000076,-0.687377,-0.014958,0.006509,0.999867,0.148267,-0.416002,0.897195
9.96,-0.000063,-0.000156,-0.692099,-0.003314,0.001637,0.999993,0.161473,-0.41704,0.894429
9.97,0.000136,-0.000121,-0.696819,-0.000298,0.007211,0.999974,0.164245,-0.410002,0.897174
9.98,-0.000015,0.000023,-0.70117,0.001914,-0.001262,0.999997,0.165401,-0.418385,0.893083
9.99,-0.000137,0.000058,-0.70574,-0.004514,-0.000546,0.99999,0.166285,-0.416587,0.893759
10,-0.000138,-0.000082,-0.710066,0.005776,-0.001095,0.999983,0.157859,-0.4183,0.894486
10.01,0.000023,0.000026,-0.714364,0.006564,0.005188,0.999965,0.173342,-0.397471,0.901093
10.02,0.000042,-0.000022,-0.718512,0.008381,-0.009396,0.999921,0.17062,-0.404303,0.89857
10.03,-0.000162,-0.000166,-0.722672,-0.012625,-0.0045,0.99991,0.170134,-0.405773,0.897999
10.04,-0.000161,-0.000055,-0.726818,-0.003563,-0.010645,0.999937,0.175415,-0.409501,0.895287
10.05,-0.000082,-0.000068,-0.730678,0.001292,-0.008539,0.999963,0.182125,-0.405186,0.89591
10.06,-0.00026,0.000048,-0.73451,0.00578,0.006778,0.99996,0.190319,-0.405516,0.894056
10.07,-0.000037,-0.00003,-0.738476,-0.000212,-0.001963,0.999998,0.190131,-0.397953,0.897487
10.08,0.00012,-0.000132,-0.74228,0.006057,0.003193,0.999977,0.197957,-0.407111,0.891669
10.09,-0.000056,0.00002,-0.745941,0.005474,-0.009551,0.999939,0.198997,-0.394571,0.897058
10.1,0.000018,-0.000065,-0.749536,-0.002846,-0.011527,0.99993,0.198963,-0.387181,0.90028
10.11,-0.000098,-0.000087,-0.753056,-0.003829,0.002221,0.99999,0.208879,-0.394496,0.894842
10.12,-0.000052,-0.000131,-0.756327,-0.001989,0.008092,0.999965,0.203971,-0.402329,0.892484
10.13,-0.000051,-0.000149,-0.759705,0.001985,-0.007829,0.999967,0.20188,-0.394009,0.896661
10.14,-0.000105,0.000016,-0.763057,-0.003237,0.002391,0.999992,0.213176,-0.386183,0.897451
10.15,-0.000018,-0.000014,-0.766277,0.001879,0.0028,0.999994,0.214461,-0.384077,0.898049
10.16,-0.000036,0.000149,-0.769508,0.001609,-0.004425,0.999989,0.216608,-0.390437,0.894785
10.17,-0.000034,0.000009,-0.772407,0.001851,0.00029,0.999998,0.218921,-0.378385,0.899388
10.18,-0.000159,0.00016,-0.775265,0.004211,-0.001868,0.999989,0.222197,-0.379975,0.897913
10.19,0.000142,0.000018,-0.778058,0.001477,0.006871,0.999975,0.228889,-0.385373,0.893923
10.2,0.000002,0.000027,-0.780709,0.009931,-0.002508,0.999948,0.231272,-0.387599,0.892345
10.21,-0.000001,-0.000016,-0.783458,-0.003598,-0.001446,0.999992,0.226694,-0.377057,0.898019
10.22,0.000079,0.000043,-0.786136,0.000978,-0.005332,0.999985,0.235202,-0.372617,0.897684
10.23,-0.000095,0,-0.788593,0.001308,0.004887,0.999987,0.239762,-0.373649,0.896047
10.24,-0.000072,-0.000112,-0.790964,0.001036,0.014866,0.999889,0.235837,-0.3707,0.898311
10.25,-0.000002,0.000058,-0.793257,0.000646,-0.005919,0.999982,0.242094,-0.368983,0.897353
10.26,0.000142,-0.000035,-0.795208,-0.002254,0.009307,0.999954,0.250897,-0.369201,0.894842
10.27,0.000048,0.000015,-0.797672,0.004145,-0.002466,0.999988,0.241791,-0.370183,0.89694
10.28,-0.000286,-0.000042,-0.799667,-0.001855,0.000505,0.999998,0.251937,-0.361122,0.897841
10.29,0.000128,-0.000149,-0.801483,-0.002639,0.000575,0.999996,0.248451,-0.357653,0.900198
10.3,-0.000061,0.000035,-0.80375,-0.001819,0.00464,0.999988,0.263321,-0.353078,0.897774
10.31,-0.000027,-0.000059,-0.805259,-0.002724,0.010853,0.999937,0.261901,-0.361523,0.894823
10.32,-0.000031,-0.000128,-0.806939,0.006297,0.009608,0.999934,0.260786,-0.36079,0.895445
10.33,0.000021,0.000023,-0.808547,0.002603,0.00467,0.999986,0.26782,-0.358257,0.894385
10.34,0.000057,-0.000031,-0.810279,0.004102,0.00521,0.999978,0.266336,-0.359621,0.894281
10.35,-0.00016,0.000089,-0.811535,-0.004774,0.00301,0.999984,0.270515,-0.346371,0.898248
10.36,-0.000031,-0.000067,-0.812941,-0.002671,-0.000852,0.999996,0.279564,-0.348306,0.894722
10.37,-0.000037,-0.000058,-0.814263,0.004655,0.00131,0.999988,0.278363,-0.347438,0.895433
10.38,0.000149,-0.000009,-0.815424,-0.004732,0.002153,0.999986,0.283815,-0.342895,0.895473
10.39,-0.000153,-0.000092,-0.816388,0.001989,0.000799,0.999998,0.278044,-0.332837,0.901061
10.4,0.000027,-0.000048,-0.817436,-0.006906,-0.000045,0.999976,0.282804,-0.331217,0.900176
10.41,-0.000066,-0.000125,-0.818227,-0.005577,0.002246,0.999982,0.291714,-0.342782,0.892975
10.42,-0.000007,0.000187,-0.819217,0.011883,-0.000229,0.999929,0.295289,-0.331565,0.89603
10.43,-0.000051,0.000048,-0.819893,-0.006048,-0.005459,0.999967,0.293616,-0.323061,0.899679
10.44,-0.000161,-0.000111,-0.820494,-0.008935,0.003629,0.999953,0.294742,-0.329684,0.896903
10.45,-0.000009,-0.000037,-0.820956,0.001654,-0.008014,0.999967,0.290179,-0.330905,0.897941
10.46,0.000047,-0.000001,-0.821492,-0.008802,0.008208,0.999928,0.306733,-0.319978,0.896398
10.47,-0.000062,0.000019,-0.821775,-0.00667,0.000605,0.999978,0.304379,-0.324775,0.895474
10.48,-0.000034,0.000011,-0.822154,-0.004833,-0.003131,0.999983,0.304268,-0.327137,0.894652
10.49,-0.000163,-0.000116,-0.822239,0.003703,0.004646,0.999982,0.306948,-0.322056,0.89558
10.5,0,0.00011,-0.822391,0.000724,0.00266,0.999996,0.316608,-0.305855,0.897893
10.51,0.000036,0.000087,-0.822309,0.008654,0.00128,0.999962,0.312826,-0.307156,0.898774
10.52,-0.000093,-0.000045,-0.822295,-0.000276,-0.003214,0.999995,0.326096,-0.307731,0.893847
10.53,-0.000125,0.000013,-0.822036,-0.001486,-0.003857,0.999991,0.313201,-0.31026,0.897577
10.54,-0.000081,0.000143,-0.82188,0.010248,0.001626,0.999946,0.328895,-0.301945,0.894795
10.55,-0.000057,-0.000049,-0.821556,-0.003426,-0.007194,0.999968,0.325313,-0.316749,0.890978
10.56,-0.000003,-0.000027,-0.820899,0.003083,-0.003815,0.999988,0.32774,-0.292031,0.898501
10.57,0.000014,0.000018,-0.820522,-0.004092,0.00735,0.999965,0.32779,-0.297611,0.89665
10.58,-0.000163,-0.000036,-0.819946,0.002468,0.008915,0.999957,0.326565,-0.291929,0.898962
10.59,0.000044,-0.000031,-0.819006,0.002293,0.001575,0.999996,0.331732,-0.292467,0.896893
10.6,0.000025,0.000044,-0.818321,0.000344,0.006543,0.999979,0.343984,-0.289188,0.893334
10.61,-0.000021,0.000028,-0.81736,-0.002992,0.008919,0.999956,0.344566,-0.288327,0.893388
10.62,-0.000101,0.000014,-0.816222,0.002728,0.004357,0.999987,0.352451,-0.291882,0.889148
10.63,-0.000047,-0.000051,-0.815432,-0.001173,-0.000422,0.999999,0.334681,-0.283932,0.898538
10.64,-0.000166,0.000075,-0.814197,-0.002006,-0.007695,0.999968,0.341861,-0.274402,0.898796
10.65,-0.000013,0.000132,-0.812725,0.001746,-0.000332,0.999998,0.352248,-0.273877,0.894937
10.66,-0.000117,0.000063,-0.811542,0.001815,0.005193,0.999985,0.348717,-0.264828,0.899034
10.67,-0.000005,0.000013,-0.810162,-0.000505,0.003232,0.999995,0.357863,-0.270768,0.893655
10.68,0.000099,0.000025,-0.808605,-0.001841,-0.003914,0.999991,0.355732,-0.270243,0.894664
10.69,0.00007,0.00005,-0.806981,-0.002271,0.00224,0.999995,0.3462,-0.264071,0.900229
10.7,-0.000011,0.000125,-0.805274,0.001456,0.007285,0.999972,0.358457,-0.264417,0.895317
10.71,-0.000047,-0.000103,-0.803558,-0.006295,-0.00699,0.999956,0.366992,-0.245019,0.897376
10.72,-0.000131,-0.000019,-0.801627,0.003323,0.008162,0.999961,0.369771,-0.252406,0.894181
10.73,-0.000218,-0.000027,-0.799626,-0.001112,0.004513,0.999989,0.369256,-0.252447,0.894383
10.74,-0.000025,-0.000112,-0.797517,0.003631,0.007065,0.999968,0.377542,-0.248202,0.892109
10.75,-0.0001,-0.000136,-0.795581,0.003907,-0.002179,0.99999,0.36914,-0.239556,0.897969
10.76,-0.00004,0.000057,-0.793155,-0.004196,0.009598,0.999945,0.370739,-0.235714,0.898327
10.77,-0.000021,-0.000133,-0.790998,0.000046,-0.000002,1,0.378391,-0.237981,0.894531
10.78,-0.000118,-0.000044,-0.788693,-0.002952,0.002927,0.999991,0.379359,-0.230096,0.896182
10.79,-0.00003,0.000028,-0.786062,0.002534,0.000597,0.999997,0.383488,-0.236363,0.892787
10.8,0.000001,-0.00011,-0.7836,-0.000648,-0.006774,0.999977,0.376197,-0.229629,0.897634
10.81,-0.000095,0.000072,-0.780722,0.011545,-0.002174,0.999931,0.387367,-0.22219,0.894751
10.82,-0.000079,0.000076,-0.778093,-0.001214,-0.00394,0.999992,0.380911,-0.216366,0.89894
10.83,0.000093,0.000013,-0.775272,-0.008983,0.002677,0.999956,0.379501,-0.213258,0.900278
10.84,0.00003,-0.000096,-0.772397,0.006616,0.004492,0.999968,0.386608,-0.222323,0.895046
10.85,-0.000166,-0.000006,-0.769317,-0.007211,0.004157,0.999965,0.379924,-0.215121,0.899656
10.86,-0.000046,-0.000064,-0.766101,0.003531,-0.00122,0.999993,0.384033,-0.205981,0.90005
10.87,-0.000076,-0.000092,-0.762947,-0.003638,0.001466,0.999992,0.393224,-0.204628,0.896383
10.88,0.000085,0.000001,-0.759953,-0.000938,-0.00474,0.999988,0.398431,-0.211494,0.892481
10.89,-0.000092,0.000025,-0.756462,-0.004163,-0.005744,0.999975,0.396014,-0.197716,0.896706
10.9,0.000096,-0.000148,-0.752984,-0.000565,-0.00239,0.999997,0.397821,-0.201011,0.895172
10.91,-0.000094,0.000087,-0.749547,0.002375,-0.00143,0.999996,0.386251,-0.194124,0.901735
10.92,0.00005,-0.000085,-0.746078,0.001554,0.000905,0.999998,0.396913,-0.188576,0.898276
10.93,-0.000136,-0.000082,-0.742377,-0.005207,0.006717,0.999964,0.395389,-0.190496,0.898542
10.94,0.000065,0.000088,-0.738516,0.006226,0.003178,0.999976,0.403197,-0.184574,0.896306
10.95,-0.00013,-0.000039,-0.73477,-0.00103,0.008376,0.999964,0.39931,-0.177193,0.89953
10.96,0.000087,-0.000001,-0.730757,-0.001784,-0.00397,0.999991,0.401288,-0.184394,0.8972
10.97,-0.000074,-0.000204,-0.726877,-0.004567,0.000758,0.999989,0.402333,-0.176915,0.898237
10.98,-0.000137,0.000004,-0.722731,0.002777,0.001858,0.999994,0.41247,-0.169387,0.895085
10.99,-0.000109,-0.000063,-0.718454,-0.002832,0.006531,0.999975,0.403666,-0.172703,0.898458
11,-0.000123,-0.000109,-0.714382,-0.000497,-0.003701,0.999993,0.407257,-0.163737,0.898517
11.01,-0.0001,-0.000066,-0.71001,-0.000901,0.000871,0.999999,0.408934,-0.165312,0.897466
11.02,0.000112,-0.000184,-0.705673,-0.006704,0.003812,0.99997,0.41361,-0.163613,0.895632
11.03,-0.000036,-0.000036,-0.701226,-0.006075,-0.001784,0.99998,0.413988,-0.16914,0.89443
11.04,-0.000069,0.000059,-0.696712,-0.003043,0.002488,0.999992,0.415472,-0.160939,0.895255
11.05,-0.000051,-0.000029,-0.692047,0.003259,0.001733,0.999993,0.417724,-0.163112,0.893812
11.06,-0.000054,0.000059,-0.687367,0.001046,0.00017,0.999999,0.410051,-0.152406,0.899239
11.07,-0.000024,-0.000033,-0.682687,0.001718,0.004099,0.99999,0.417145,-0.155422,0.895452
11.08,-0.000112,-0.00012,-0.677742,0.001042,0.002943,0.999995,0.414947,-0.144934,0.898228
11.09,-0.000102,-0.000121,-0.672822,-0.004366,-0.000238,0.99999,0.422468,-0.141338,0.89529
11.1,0.000006,-0.000182,-0.667707,0.001424,-0.004728,0.999988,0.413169,-0.148884,0.898401
11.11,-0.000037,-0.000038,-0.662698,0.001716,0.003706,0.999992,0.42004,-0.143047,0.896161
11.12,-0.000033,-0.000081,-0.657465,0.002236,-0.004239,0.999989,0.421637,-0.139409,0.895984
11.13,-0.000133,-0.000037,-0.652375,-0.000461,-0.003317,0.999994,0.423007,-0.131354,0.896555
11.14,-0.000133,-0.000038,-0.647137,-0.009059,-0.003402,0.999953,0.42261,-0.131624,0.896703
11.15,0.00017,-0.000107,-0.641825,0.000418,0.000196,1,0.422971,-0.141495,0.895028
11.16,0.000018,-0.000022,-0.636505,0.00964,-0.000215,0.999954,0.423916,-0.124145,0.897153
11.17,-0.000004,-0.000019,-0.630872,-0.003822,-0.003548,0.999986,0.426386,-0.125206,0.895834
11.18,0.000059,0.00006,-0.625316,-0.008921,0.008412,0.999925,0.419302,-0.1234,0.899421
11.19,-0.000012,-0.000125,-0.619735,0.003715,0.008765,0.999955,0.425506,-0.110517,0.898182
11.2,-0.00002,-0.000064,-0.614019,0.008236,-0.011708,0.999898,0.429067,-0.113695,0.896089
11.21,-0.000111,0.000105,-0.608077,0.001604,-0.002676,0.999995,0.429648,-0.116958,0.89539
11.22,-0.000073,0.000006,-0.602456,0.000239,-0.003469,0.999994,0.431136,-0.106276,0.896006
11.23,0.000071,0.000009,-0.596533,0.009056,-0.013071,0.999874,0.428636,-0.102237,0.897674
11.24,-0.000059,-0.000018,-0.590665,0.008159,0.003393,0.999961,0.431854,-0.099349,0.896455
11.25,0.00002,-0.000091,-0.584505,-0.001265,-0.003006,0.999995,0.43075,-0.095304,0.897425
11.26,-0.000028,0.000067,-0.578463,-0.000305,-0.006479,0.999979,0.42966,-0.102682,0.897134
11.27,0.00005,-0.000109,-0.572255,0.00587,-0.006411,0.999962,0.431472,-0.088621,0.897763
11.28,-0.000059,-0.000012,-0.566086,0.011892,-0.004212,0.99992,0.433874,-0.101467,0.895242
11.29,0.000042,-0.000205,-0.559785,-0.004903,0.00392,0.99998,0.435303,-0.087478,0.896024
11.3,-0.00017,0.000077,-0.553646,-0.000694,-0.011728,0.999931,0.434085,-0.08489,0.896863
11.31,-0.000127,-0.000175,-0.54693,0.000167,0.00023,1,0.432149,-0.086436,0.89765
11.32,-0.000152,-0.000019,-0.540659,0.002563,-0.014801,0.999887,0.437392,-0.081474,0.895573
11.33,-0.000197,-0.000058,-0.534035,-0.004559,-0.001557,0.999988,0.444188,-0.081149,0.892251
11.34,-0.000056,0.000053,-0.527546,0.003153,-0.008737,0.999957,0.435525,-0.078947,0.896708
11.35,-0.000039,-0.000062,-0.520848,0.003981,-0.005252,0.999978,0.438538,-0.077776,0.895341
11.36,0.000126,0.000003,-0.514168,-0.004995,-0.002397,0.999985,0.441926,-0.067394,0.894516
11.37,-0.000093,-0.000095,-0.507307,-0.006147,0.005044,0.999968,0.43636,-0.076461,0.896517
11.38,-0.000137,-0.000108,-0.500638,0.001407,0.00095,0.999999,0.444206,-0.070291,0.893163
11.39,-0.000077,0.000142,-0.493976,0.011711,-0.006939,0.999907,0.435957,-0.071529,0.89712
11.4,-0.000008,0.000034,-0.486953,-0.005016,-0.001516,0.999986,0.437696,-0.067013,0.896622
11.41,-0.000096,0.000009,-0.479745,0.005513,0.003428,0.999979,0.441054,-0.068512,0.894862
11.42,-0.00012,-0.000166,-0.472782,-0.001901,0.005814,0.999981,0.4349,-0.058996,0.898544
11.43,0.000094,-0.000058,-0.465987,-0.002837,0.006103,0.999977,0.43872,-0.055615,0.896901
11.44,0.000087,-0.000046,-0.458573,0.001199,-0.005757,0.999983,0.443784,-0.064757,0.893791
11.45,-0.000043,-0.000061,-0.451537,0.002108,-0.014284,0.999896,0.435895,-0.049341,0.898644
11.46,0.000089,0.000096,-0.44446,0.002064,-0.008521,0.999962,0.439043,-0.049719,0.897089
11.47,-0.000121,0.000126,-0.437034,0.008392,-0.005496,0.99995,0.438447,-0.053309,0.897174
11.48,-0.000158,-0.000028,-0.429691,-0.00072,-0.002854,0.999996,0.442196,-0.043999,0.895839
11.49,-0.000048,-0.000071,-0.422342,0.002395,0.008423,0.999962,0.439148,-0.052767,0.896864
11.5,-0.000079,0,-0.414972,0.000488,0.000632,1,0.438525,-0.051518,0.897241
11.51,-0.000065,-0.000041,-0.407329,0.003157,-0.002579,0.999992,0.445738,-0.044964,0.894034
11.52,-0.000007,-0.000038,-0.399892,0.003294,-0.009569,0.999949,0.44421,-0.035199,0.895231
11.53,-0.000004,0.000066,-0.392347,-0.002062,-0.000725,0.999998,0.437105,-0.041932,0.898433
11.54,0.000117,0.000089,-0.384805,-0.004849,-0.000773,0.999988,0.43396,-0.038396,0.900113
11.55,-0.000076,0.000048,-0.377123,-0.000615,-0.001091,0.999999,0.44357,-0.035954,0.895518
11.56,-0.000048,-0.000158,-0.369654,0.000076,-0.014163,0.9999,0.442797,-0.028904,0.896156
11.57,-0.000009,0.000039,-0.36171,0.004913,-0.000117,0.999988,0.437991,-0.027107,0.898571
11.58,-0.000152,0.000062,-0.354072,0.006713,-0.003447,0.999972,0.442729,-0.032455,0.896068
11.59,-0.000006,0.000008,-0.346303,-0.001397,-0.003894,0.999991,0.442082,-0.040724,0.89605
11.6,-0.000091,-0.00021,-0.338482,-0.003485,-0.000866,0.999994,0.445455,-0.032364,0.894719
11.61,-0.000197,0.000009,-0.330528,-0.001328,-0.002338,0.999996,0.437373,-0.025518,0.898918
11.62,0.00004,0.000002,-0.322685,0.001967,0.000001,0.999998,0.443227,-0.031957,0.895839
11.63,-0.000009,-0.000063,-0.314636,0.002929,0.001451,0.999995,0.441191,-0.022556,0.89713
11.64,-0.000012,-0.000115,-0.306715,0.000066,0.005752,0.999983,0.444716,-0.030873,0.895139
11.65,-0.000035,-0.000056,-0.298629,0.004268,-0.000985,0.99999,0.450006,-0.02104,0.892778
11.66,0.00011,-0.000061,-0.290697,-0.00225,0.000202,0.999997,0.443348,-0.016968,0.896189
11.67,-0.000236,-0.00004,-0.282632,-0.000175,0.007476,0.999972,0.446199,-0.028107,0.894492
11.68,-0.000228,-0.000004,-0.274439,-0.008943,-0.000916,0.99996,0.44384,-0.017369,0.895938
11.69,-0.000104,-0.000061,-0.266441,0.000157,0.003275,0.999995,0.444761,-0.016475,0.895498
11.7,0.000027,-0.000161,-0.258221,-0.006613,-0.005392,0.999964,0.439982,-0.018245,0.897821
11.71,0.000131,-0.000024,-0.249962,-0.007367,-0.00379,0.999966,0.440951,-0.01934,0.897323
11.72,-0.000052,-0.000131,-0.241787,-0.000294,-0.000134,1,0.443122,-0.014267,0.896348
11.73,-0.000004,-0.000118,-0.233509,-0.008587,0.000616,0.999963,0.443937,-0.007742,0.896025
11.74,0.000069,0.000065,-0.225406,0.001353,-0.005002,0.999987,0.438058,-0.010804,0.898882
11.75,-0.000125,-0.00017,-0.216879,-0.000509,0.003701,0.999993,0.446455,-0.008916,0.894762
11.76,0.000014,0.000033,-0.20873,0.003076,-0.010615,0.999939,0.450401,-0.013825,0.89272
11.77,-0.000141,-0.000022,-0.200302,0.003889,-0.004552,0.999982,0.443458,-0.013279,0.896197
11.78,-0.000114,-0.000016,-0.19189,-0.000012,0.00144,0.999999,0.439277,-0.008204,0.898314
11.79,-0.00002,-0.000119,-0.183746,0.000953,-0.001127,0.999999,0.44068,-0.017056,0.897502
11.8,-0.000062,-0.000014,-0.175179,0.001358,0.003888,0.999992,0.445144,-0.00764,0.895427
11.81,-0.000077,-0.000089,-0.166669,-0.002743,-0.001683,0.999995,0.441547,-0.010174,0.89718
11.82,-0.000044,-0.000018,-0.158373,-0.004345,-0.002431,0.999988,0.447462,-0.007737,0.894269
11.83,-0.000094,-0.000014,-0.149916,0.003816,-0.005923,0.999975,0.443798,0.001883,0.896125
11.84,-0.000149,-0.000057,-0.141247,-0.005819,0.003935,0.999975,0.440183,-0.008696,0.897866
11.85,-0.000023,0.000099,-0.132871,0.006304,0.002726,0.999976,0.436796,-0.011075,0.899493
11.86,-0.000067,-0.00015,-0.124403,0.000191,-0.003121,0.999995,0.446612,-0.006854,0.894701
11.87,0.000086,0,-0.115768,-0.005062,-0.001521,0.999986,0.43023,-0.002085,0.902717
11.88,0.000022,-0.00003,-0.107317,0.001055,0.012301,0.999924,0.448708,0.001099,0.893678
11.89,-0.000029,0.00003,-0.098715,0.000435,-0.000445,1,0.444923,0.005238,0.895554
11.9,0.000003,-0.000015,-0.090266,-0.001486,0.000281,0.999999,0.433678,0.003637,0.901061
11.91,-0.000062,-0.000111,-0.081546,0.003644,0.002127,0.999991,0.442066,0.001686,0.896981
11.92,-0.000223,-0.000048,-0.07285,0.000021,0.001529,0.999999,0.43931,-0.000405,0.898336
11.93,-0.000069,-0.000128,-0.064478,-0.001121,-0.000454,0.999999,0.442279,0.004832,0.896865
11.94,0.000073,-0.000043,-0.055833,0.000881,-0.002643,0.999996,0.441148,0.000061,0.897434
11.95,-0.000031,-0.000061,-0.047016,0.006061,-0.004662,0.999971,0.443464,0.00388,0.896284
11.96,-0.000033,-0.000076,-0.038732,-0.001193,0.018171,0.999834,0.443647,-0.001137,0.896201
11.97,-0.000006,0.000007,-0.030017,0.000278,-0.000521,1,0.452447,0.003158,0.891786
11.98,-0.000027,-0.000154,-0.02143,-0.00249,0.009832,0.999949,0.445957,0.006233,0.895033
11.99,-0.000066,-0.000054,-0.012994,-0.001391,-0.000025,0.999999,0.440989,0.008888,0.897469
12,-0.000089,-0.000092,-0.004256,-0.004618,0.00054,0.999989,0.44329,-0.004514,0.896367
12.01,0.00414,-0.000024,0.000064,-0.007297,-0.001119,0.999973,0.447312,0.006998,0.894351
12.02,0.012782,-0.000083,-0.000021,-0.008162,0.004242,0.999958,0.44041,-0.004156,0.897787
12.03,0.021569,-0.000249,0.000024,0.009098,-0.005897,0.999941,0.436627,0.00095,0.899642
12.04,0.029954,-0.000066,0.000128,-0.001612,0.0059,0.999981,0.445545,-0.002203,0.895257
12.05,0.038649,-0.000017,-0.00002,0.000427,0.004046,0.999992,0.44175,0.005135,0.897123
12.06,0.047474,0.000051,0.000152,0.004744,-0.000072,0.999989,0.448661,0.006516,0.893678
12.07,0.055785,-0.000125,0.000148,0.000937,0.003287,0.999994,0.443972,0.008644,0.895999
12.08,0.064473,-0.000051,0.000083,-0.007448,-0.004835,0.999961,0.447527,0.006153,0.894249
12.09,0.072963,0.000039,0.000055,-0.010432,0.010172,0.999894,0.440625,0.012889,0.897599
12.1,0.081689,-0.000087,0.000098,-0.006542,0.006051,0.99996,0.447244,0.007534,0.89438
12.11,0.090151,0.000055,0.000152,0.000217,0.003912,0.999992,0.438745,0.008447,0.898572
12.12,0.098848,0.000016,0.000109,0.004405,0.010799,0.999932,0.438931,0.013795,0.898415
12.13,0.107077,0.000044,0.00003,0.006084,0.006945,0.999957,0.43915,0.0046,0.898402
12.14,0.115855,-0.000053,-0.000068,0.002186,0.00984,0.999949,0.445667,0.006465,0.895176
12.15,0.12432,0.000029,0.000177,0.003149,0.001989,0.999993,0.440724,0.006337,0.89762
12.16,0.132819,-0.000108,0.00018,-0.000318,0.011446,0.999934,0.451671,0.015905,0.892043
12.17,0.141289,0.000152,0.000058,0.004837,0.011662,0.99992,0.445118,0.018914,0.895272
12.18,0.149765,0.000057,0.000201,-0.003525,0.010453,0.999939,0.445583,0.012997,0.895146
12.19,0.158178,0.000107,0.000029,0.005016,0.009145,0.999946,0.441511,0.013739,0.897151
12.2,0.166875,-0.000062,-0.000084,-0.002426,0.015905,0.999871,0.444593,0.01625,0.895585
12.21,0.175214,0.000052,0.000237,0.005233,0.022363,0.999736,0.449491,0.023774,0.892968
12.22,0.183726,0.000032,0.000033,0.00412,0.025836,0.999658,0.445917,0.026659,0.894677
12.23,0.191915,-0.000054,-0.000019,-0.003468,0.02578,0.999662,0.446835,0.024805,0.894272
12.24,0.200301,-0.000251,0.000069,-0.011427,0.021596,0.999701,0.434254,0.015419,0.900658
12.25,0.208665,0.000195,0.00012,-0.003878,0.030954,0.999513,0.439411,0.028337,0.897839
12.26,0.216944,0.000021,-0.000053,-0.006045,0.026654,0.999626,0.439283,0.028152,0.897908
12.27,0.225229,-0.000192,0.000179,-0.004314,0.033999,0.999413,0.448464,0.035114,0.893111
12.28,0.233604,-0.000131,0.000048,-0.001457,0.035492,0.999369,0.4411,0.036711,0.896707
12.29,0.241881,0.000015,0.000087,0.001078,0.030909,0.999522,0.443254,0.025776,0.896025
12.3,0.249942,-0.000084,0.000062,-0.00125,0.043622,0.999047,0.441604,0.037808,0.896413
12.31,0.258288,-0.000101,-0.000044,0.007681,0.040916,0.999133,0.43462,0.027877,0.900182
12.32,0.26647,-0.00011,0.000148,-0.000187,0.045386,0.99897,0.440667,0.032671,0.897076
12.33,0.274526,0.000048,0.000206,-0.008768,0.047984,0.99881,0.441164,0.043806,0.896357
12.34,0.282668,0.000039,-0.000026,0.007528,0.058415,0.998264,0.44243,0.04256,0.895793
12.35,0.29062,0.000028,0.000188,-0.004462,0.055602,0.998443,0.4422,0.0438,0.895846
12.36,0.298843,0.000173,0.000081,0.000647,0.055941,0.998434,0.438791,0.04788,0.897313
12.37,0.306747,0.000059,0.000055,0.011127,0.054674,0.998442,0.438732,0.050142,0.897218
12.38,0.314698,-0.00012,0.00014,0.00169,0.056775,0.998386,0.442823,0.053825,0.894992
12.39,0.32255,0.000016,-0.00007,0.007129,0.064299,0.997905,0.44348,0.045199,0.895144
12.4,0.330643,-0.000118,0.000127,0.003223,0.072327,0.997376,0.445142,0.070426,0.892686
12.41,0.338277,-0.000067,0.000156,-0.004308,0.066908,0.99775,0.448819,0.063199,0.891385
12.42,0.346177,-0.000023,0.000012,-0.01311,0.068359,0.997575,0.446217,0.067296,0.892391
12.43,0.353838,-0.000002,0.000091,-0.003204,0.073844,0.997265,0.446653,0.073115,0.891715
12.44,0.361697,0.000021,-0.000016,0.001664,0.085886,0.996304,0.444816,0.073726,0.892582
12.45,0.369421,-0.000028,-0.000006,-0.001999,0.081242,0.996692,0.441804,0.07651,0.893843
12.46,0.377383,-0.000164,0.000118,-0.008755,0.084821,0.996358,0.441863,0.072664,0.894135
12.47,0.384902,-0.000201,-0.000098,0.004187,0.093321,0.995627,0.437288,0.084137,0.895377
12.48,0.392455,-0.000071,0.000087,0.002802,0.093521,0.995613,0.430594,0.078379,0.899136
12.49,0.400053,-0.000061,-0.000039,-0.004653,0.108966,0.994035,0.442546,0.079711,0.893196
12.5,0.407219,-0.000011,-0.000027,-0.004097,0.099449,0.995034,0.444334,0.098912,0.890384
12.51,0.414943,-0.000008,-0.000067,0.003067,0.115222,0.993335,0.443454,0.097324,0.890997
12.52,0.422479,0.000066,0.000128,-0.00601,0.114635,0.99339,0.451326,0.100851,0.886642
12.53,0.429593,-0.000064,0.000006,-0.00774,0.116545,0.993155,0.443223,0.101552,0.890641
12.54,0.43698,-0.000127,0.000092,-0.004731,0.122415,0.992468,0.445348,0.097384,0.890046
12.55,0.444308,0.000003,0.000009,0.00495,0.12245,0.992462,0.447866,0.108167,0.887533
12.56,0.451624,-0.000012,-0.000185,0.003384,0.129484,0.991576,0.450874,0.121598,0.884266
12.57,0.458629,-0.000034,0.000138,0.010787,0.123504,0.992285,0.440917,0.117311,0.889849
12.58,0.465782,-0.000051,-0.000004,-0.004037,0.138622,0.990337,0.437725,0.12837,0.889898
12.59,0.472939,-0.000068,0.000001,-0.000695,0.143229,0.989689,0.443541,0.127992,0.887068
12.6,0.479837,0.00002,0.000007,-0.001458,0.149417,0.988773,0.437378,0.137174,0.888754
12.61,0.486723,0.000026,-0.000008,-0.003347,0.153331,0.988169,0.443282,0.140301,0.885334
12.62,0.493815,0.000004,0.000159,-0.01023,0.162036,0.986732,0.436028,0.141301,0.888771
12.63,0.500735,-0.000079,0.000039,-0.009541,0.162656,0.986637,0.436338,0.156474,0.886073
12.64,0.507337,0.000118,0.000092,-0.004358,0.174706,0.984611,0.444939,0.144928,0.883756
12.65,0.514321,-0.000057,-0.000125,-0.007265,0.178034,0.983998,0.439738,0.157183,0.884264
12.66,0.521026,-0.000021,0.000065,0.000685,0.172801,0.984957,0.443382,0.162656,0.881451
12.67,0.527534,0.000028,0.0001,-0.004928,0.183843,0.982943,0.442154,0.17171,0.88035
12.68,0.533968,0.000066,0.000007,0.0067,0.196775,0.980426,0.444191,0.17327,0.879018
12.69,0.540586,0.000122,0.000134,-0.000466,0.203812,0.97901,0.441467,0.175246,0.879997
12.7,0.547058,-0.000191,0.000068,0.004926,0.198186,0.980152,0.442251,0.177173,0.879218
12.71,0.553535,-0.000036,-0.000055,-0.001348,0.202191,0.979345,0.447657,0.178024,0.876305
12.72,0.559759,-0.000138,0.000072,-0.004015,0.210339,0.97762,0.441198,0.189555,0.877162
12.73,0.566178,0.000061,-0.00001,0.010281,0.207847,0.978107,0.447023,0.19252,0.873559
12.74,0.572343,0.00002,0.000009,0.003181,0.219866,0.975525,0.446735,0.196564,0.872806
12.75,0.578463,0.000157,0.000072,0.002584,0.230721,0.973017,0.447435,0.201116,0.87141
12.76,0.584643,-0.000067,0.000057,-0.001053,0.233751,0.972296,0.439998,0.196155,0.876314
12.77,0.590443,-0.000031,0.000158,0.000883,0.235622,0.971844,0.447942,0.222947,0.865819
12.78,0.596737,0.000076,0.000114,-0.00676,0.250913,0.967986,0.442899,0.224013,0.868135
12.79,0.602454,-0.000081,0.00004,-0.004318,0.255174,0.966886,0.446249,0.223568,0.866533
12.8,0.608333,-0.000097,0.000135,0.001622,0.255701,0.966755,0.447552,0.232092,0.863615
12.81,0.613956,-0.000184,-0.000035,0.000915,0.251299,0.967909,0.440345,0.246615,0.863294
12.82,0.619592,-0.000148,0.000152,0.004862,0.26116,0.965283,0.439243,0.246597,0.863861
12.83,0.625348,-0.00001,0.000155,-0.001101,0.273746,0.961801,0.448553,0.242809,0.860142
12.84,0.631035,-0.000073,0.00017,0.004779,0.282649,0.959211,0.445964,0.25182,0.858896
12.85,0.636448,-0.000028,0.000092,0.005325,0.286049,0.9582,0.446519,0.259041,0.856457
12.86,0.64171,-0.000097,0.000044,0.004079,0.286018,0.958216,0.447458,0.266278,0.853743
12.87,0.647238,-0.000061,0.000043,-0.001744,0.29439,0.955684,0.449182,0.263695,0.853639
12.88,0.652548,0.000095,0.000121,0.00155,0.30333,0.952884,0.444246,0.271885,0.853653
12.89,0.657781,-0.000064,0.000027,-0.00197,0.314129,0.949378,0.442974,0.28031,0.851587
12.9,0.662834,-0.000055,0.000009,-0.000631,0.315731,0.948848,0.447101,0.288964,0.846523
12.91,0.668012,-0.000046,-0.000031,-0.009582,0.320488,0.947204,0.445652,0.28063,0.850083
12.92,0.6729,0.000132,0.000061,-0.00784,0.33033,0.943833,0.447464,0.302411,0.841619
12.93,0.67788,-0.000067,0.000011,-0.000143,0.335668,0.94198,0.441758,0.3067,0.843081
12.94,0.682554,-0.000041,0.000214,0.005192,0.349136,0.937058,0.448342,0.307271,0.839389
12.95,0.687279,0.000114,-0.000034,0.000077,0.355646,0.934621,0.446645,0.320214,0.835447
12.96,0.69205,0.000044,0.000109,0.006398,0.354586,0.935002,0.441474,0.320442,0.838104
12.97,0.69671,-0.000173,0.000085,-0.003116,0.362244,0.932078,0.441308,0.326618,0.835804
12.98,0.701135,0.000195,0.000035,-0.002192,0.380258,0.924878,0.443648,0.33006,0.833209
12.99,0.705702,-0.000129,0.000012,0.004189,0.371064,0.928598,0.440572,0.333988,0.833276
13,0.709958,0.000057,0.000031,-0.003749,0.38285,0.923803,0.448133,0.343683,0.825263
13.01,0.714426,-0.000088,0.00001,-0.003915,0.385459,0.922717,0.436229,0.348261,0.82971
13.02,0.718717,-0.000113,-0.000104,0.000082,0.396356,0.918097,0.447729,0.347141,0.824034
13.03,0.722789,-0.000128,0.000015,-0.008376,0.405183,0.914197,0.440787,0.368106,0.818661
13.04,0.726903,-0.0001,0.00013,0.000035,0.408998,0.912535,0.437835,0.365961,0.821202
13.05,0.730755,0.000101,0.000169,0.001931,0.412861,0.910792,0.443409,0.373237,0.814913
13.06,0.734683,-0.000047,-0.000019,0.001331,0.420349,0.907361,0.442609,0.375832,0.814155
13.07,0.738571,0.000072,-0.000073,-0.005537,0.42272,0.906243,0.440909,0.385799,0.810407
13.08,0.742382,-0.000144,-0.000021,-0.000991,0.427306,0.904107,0.44577,0.391936,0.804783
13.09,0.745813,0.000155,0.000059,0.005844,0.442028,0.896982,0.4413,0.402144,0.802206
13.1,0.749576,-0.000088,0.000147,-0.000294,0.451799,0.89212,0.442842,0.404582,0.800128
13.11,0.752874,-0.000026,0.000246,-0.00446,0.456923,0.889495,0.442691,0.409611,0.797649
13.12,0.756445,-0.000027,0.000112,-0.007761,0.459052,0.888376,0.439922,0.416437,0.795644
13.13,0.759745,-0.000027,0.000137,-0.003095,0.469181,0.883097,0.437609,0.421508,0.794248
13.14,0.763087,0.000004,0.000023,0.008852,0.475591,0.879622,0.43987,0.421611,0.792943
13.15,0.766268,-0.000024,0.000181,-0.007581,0.478122,0.87826,0.442553,0.429033,0.78745
13.16,0.76939,-0.00005,-0.00016,-0.007066,0.493322,0.869818,0.452339,0.434149,0.77904
13.17,0.772392,0.000037,-0.000026,0.000566,0.498288,0.867012,0.443374,0.449732,0.775345
13.18,0.775072,-0.000128,0.000134,-0.005321,0.501993,0.864855,0.445062,0.447655,0.77558
13.19,0.777986,-0.000069,0.000073,0.005873,0.507375,0.861705,0.441676,0.457275,0.771895
13.2,0.780933,-0.00003,0.000045,-0.008496,0.516984,0.855953,0.443181,0.459392,0.769772
13.21,0.78344,0.000114,0.000147,0.00514,0.528627,0.848839,0.438367,0.465635,0.768777
13.22,0.786055,-0.000151,-0.000015,-0.004225,0.529958,0.848013,0.441512,0.475494,0.760903
13.23,0.788603,-0.000092,0.000131,-0.000391,0.531987,0.846752,0.439461,0.473689,0.763212
13.24,0.790987,-0.000003,0.000111,-0.005957,0.543497,0.83939,0.445962,0.489776,0.749158
13.25,0.793315,-0.000103,0.000025,-0.012449,0.547087,0.836983,0.43915,0.498002,0.747758
13.26,0.795705,-0.000134,0.000012,-0.001869,0.552267,0.833665,0.446972,0.491223,0.747607
13.27,0.797736,-0.000043,-0.000017,-0.006426,0.562525,0.826756,0.440144,0.500963,0.745191
13.28,0.799582,0.000018,0.000143,-0.002829,0.571281,0.82075,0.440423,0.507546,0.740557
13.29,0.801786,-0.000024,0.000145,-0.002909,0.580296,0.814401,0.446222,0.509634,0.735635
13.3,0.803452,-0.000014,-0.000005,-0.00287,0.579336,0.815084,0.44742,0.525545,0.723614
13.31,0.805348,0.000037,0.000147,-0.001919,0.585801,0.810453,0.440907,0.528031,0.725799
13.32,0.806949,0.000082,0.000012,-0.009842,0.589096,0.808003,0.441169,0.529328,0.724694
13.33,0.80856,-0.000044,-0.000074,0.008864,0.599915,0.800015,0.446242,0.542266,0.71191
13.34,0.810175,-0.000003,0.000036,-0.0068,0.608583,0.793461,0.436238,0.545555,0.715588
13.35,0.811658,-0.000056,0.000054,0.002643,0.608362,0.793655,0.449934,0.55136,0.702539
13.36,0.812833,-0.000025,-0.000021,-0.00473,0.628477,0.777814,0.438314,0.555359,0.706723
13.37,0.814177,-0.000037,0.00007,0.003663,0.626663,0.779282,0.437997,0.564416,0.699709
13.38,0.815242,-0.000165,0.000027,-0.000659,0.62739,0.778705,0.444731,0.569449,0.691333
13.39,0.816506,0.000003,0.000132,-0.003536,0.638795,0.769369,0.443618,0.575311,0.687183
13.4,0.817568,0.000015,0.000052,-0.004462,0.648413,0.761276,0.443444,0.580765,0.682693
13.41,0.818265,-0.000111,0.000013,0.003218,0.656245,0.754541,0.445586,0.579328,0.682519
13.42,0.819189,-0.000009,0.000054,0.003293,0.658012,0.753,0.444521,0.586732,0.676865
13.43,0.819873,0.000026,0.000072,0.000753,0.666815,0.745223,0.44323,0.590663,0.674288
13.44,0.820543,-0.000002,0.000006,-0.001961,0.670806,0.741631,0.440841,0.606412,0.661759
13.45,0.820968,0.000014,0.00009,-0.006566,0.676862,0.736081,0.438458,0.611764,0.658407
13.46,0.821489,-0.000065,0.000252,-0.002918,0.681052,0.732229,0.441541,0.61164,0.656459
13.47,0.821803,-0.000048,0.000077,-0.004767,0.693229,0.720702,0.449541,0.61449,0.648317
13.48,0.822039,-0.000018,0.000211,0.000989,0.689742,0.724054,0.439341,0.628443,0.641903
13.49,0.822402,0.000026,0.000105,0.00352,0.706551,0.707654,0.438383,0.624815,0.646085
13.5,0.82242,0.000055,0.00004,-0.006448,0.70443,0.709744,0.44215,0.641226,0.627162
13.51,0.822373,-0.00002,0.000133,0.005061,0.712945,0.701202,0.446472,0.637254,0.628148
13.52,0.822349,0.00003,-0.000123,-0.005962,0.719388,0.694583,0.443007,0.646743,0.620861
13.53,0.822244,0.000176,0.00017,-0.002719,0.720343,0.693613,0.446461,0.647853,0.617219
13.54,0.821841,-0.000103,0.000078,-0.000686,0.73299,0.680239,0.444159,0.655698,0.610559
13.55,0.821422,0.000035,0.000008,-0.000359,0.735348,0.677689,0.45298,0.657179,0.602432
13.56,0.821142,0.00009,-0.000124,0.001772,0.739453,0.673206,0.447755,0.665205,0.59751
13.57,0.820542,-0.00009,-0.000069,-0.003531,0.748471,0.663158,0.446257,0.66171,0.60249
