time_s,gyr_x_rad_s,gyr_y_rad_s,gyr_z_rad_s,acc_x_m_s2,acc_y_m_s2,acc_z_m_s2,mag_x_nT,mag_y_nT,mag_z_nT
0,-0.000034,0.000088,0.000011,-0.064206,-0.009728,9.83985,17203.78883,-259.637773,34307.75424
0.01,-0.000094,0.000014,0.000085,0.00724,0.052089,9.810585,17195.2244,92.93027,34453.14005
0.02,-0.00003,-0.00011,0.000051,0.033876,0.022103,9.778323,17077.81409,-87.931182,34537.06396
0.03,0.000021,-0.000146,0.000014,0.066096,0.017331,9.847878,17269.83746,155.243699,34986.96045
0.04,-0.000205,-0.000141,-0.000107,-0.05399,-0.055057,9.797657,17369.79592,85.255866,34524.94394
0.05,-0.00006,-0.000139,0.000077,-0.041037,0.030197,9.8271,17286.35153,72.749782,34618.91788
0.06,-0.000026,-0.000045,-0.000166,0.060515,0.028654,9.750171,17239.47511,17.312895,34449.49906
0.07,-0.000086,-0.000033,0.000064,0.046621,-0.033276,9.769965,17197.77303,-51.39971,34439.14935
0.08,-0.000173,-0.00007,-0.000032,0.002319,-0.001228,9.858484,17208.51499,-171.198256,34317.00061
0.09,-0.00011,0.000064,-0.000017,0.140528,0.020387,9.879346,17460.0343,159.119188,34512.45629
0.1,-0.000042,0.000048,0.000003,-0.011347,0.01605,9.780784,17146.74304,16.628664,34433.45956
0.11,-0.000049,-0.000019,0.000059,-0.02192,0.066342,9.829279,16962.22565,-216.467591,34650.58573
0.12,-0.000146,-0.000022,0.000172,0.021494,-0.040796,9.892027,17339.64032,286.573191,34599.63019
0.13,-0.000174,0.000046,0.000064,-0.009654,-0.033275,9.805686,17376.20806,48.65884,34779.3386
0.14,-0.000095,0.000146,0.00012,0.032879,0.03664,9.88008,17379.79355,-58.576231,34608.74047
0.15,-0.000144,-0.000022,0.000104,-0.053726,-0.022237,9.884577,17069.2335,-97.445072,34603.54563
0.16,-0.000056,0.000031,0.000048,0.112766,-0.0321,9.801899,17325.04209,290.702809,34477.13436
0.17,0.000019,0.000097,-0.000005,-0.077855,-0.041815,9.762611,17104.32318,382.057875,34471.48218
0.18,-0.000022,-0.000069,0.000065,-0.005844,-0.060141,9.853183,17085.56367,406.353779,34539.96857
0.19,-0.000143,-0.000079,0.000037,-0.003543,-0.013312,9.852741,17256.96527,11.619913,34287.24058
0.2,0.000039,0.000071,-0.000062,-0.013981,-0.062554,9.80814,17218.08716,-307.463549,34290.89892
0.21,-0.000109,0.000028,-0.00012,0.107659,0.004341,9.832902,17347.02363,153.737929,34551.56287
0.22,-0.00008,-0.000037,0.000163,-0.010458,-0.011584,9.831971,17285.46604,256.472494,34651.93931
0.23,0.000021,-0.000057,0.000021,-0.132582,-0.062501,9.77711,16863.51337,-179.077447,34778.63606
0.24,-0.000061,0.000104,0.000016,-0.014053,0.071869,9.929174,17091.76424,251.878338,34395.2858
0.25,-0.000066,0.000002,0.000043,0.030826,0.019234,9.840828,17221.99358,-325.064524,34699.81603
0.26,-0.000057,-0.000126,0.000053,0.074529,-0.049694,9.782254,17172.81764,235.122704,34204.46074
0.27,-0.000078,0.000073,0.000111,0.007114,0.014225,9.71209,16859.51753,-117.603012,34654.53034
0.28,-0.000042,0.00003,0.000024,0.0208,-0.079898,9.844965,17409.44566,240.772248,34308.95374
0.29,0.000052,-0.000029,0.000105,0.041551,-0.113427,9.831847,17003.49642,283.552285,34701.57335
0.3,-0.000152,0.000002,-0.000094,0.009128,-0.031483,9.854199,16846.19678,134.443975,34686.94362
0.31,-0.000217,-0.000055,-0.000025,0.099201,0.024086,9.752231,17262.6402,29.055945,34647.65681
0.32,-0.000025,0.000167,-0.000019,-0.072589,-0.059014,9.755981,17292.19341,85.693364,34776.86872
0.33,-0.000094,-0.000011,0.000097,0.055285,0.013621,9.805344,17265.90382,157.869508,34509.00532
0.34,-0.000055,-0.000047,0.000115,0.04278,0.000188,9.80842,17239.06804,202.671101,34469.25141
0.35,0.000006,-0.000119,0.000047,-0.042685,-0.031794,9.808197,16934.94574,110.118814,34700.85658
0.36,-0.000036,-0.000121,0.000076,-0.059028,0.082023,9.81283,16958.52117,95.458662,34966.46714
0.37,-0.000114,0.000056,0.00007,-0.028102,0.047864,9.753903,16727.33156,99.28787,34620.48768
0.38,-0.000032,-0.00008,0.000043,0.051977,0.003465,9.900462,17117.80346,8.749552,34656.4136
0.39,-0.000214,-0.000127,0.000085,-0.028163,-0.02056,9.764578,17080.29708,-70.152654,34718.99408
0.4,-0.000225,0.000045,-0.000099,-0.062959,0.011712,9.753869,17474.90168,-5.527701,34717.09274
0.41,0.000027,-0.000102,0.000122,0.015097,-0.03268,9.859149,17330.12982,-184.961172,34502.16058
0.42,-0.000028,-0.000163,0.000163,-0.128005,0.019926,9.808937,16956.18826,-21.512725,34769.85012
0.43,0.000086,-0.000034,0.00003,-0.000804,-0.032416,9.893647,16966.84575,268.635932,34970.25286
0.44,-0.000053,-0.000114,0.000149,-0.021327,0.020334,9.793431,16955.4441,58.724502,34719.41373
0.45,-0.000087,-0.000033,-0.000016,-0.018844,0.003483,9.840173,16886.11959,-356.676981,34575.68045
0.46,-0.000094,-0.00014,0.000163,-0.056543,-0.024366,9.736289,16929.24848,25.579382,34420.33096
0.47,-0.000053,0.000056,0.000055,0.018914,-0.043477,9.769332,17002.36424,-103.377033,34586.45538
0.48,-0.0001,-0.000057,0.000005,0.031474,-0.001573,9.826611,17270.15836,39.19869,34654.65964
0.49,-0.000039,-0.000061,0.000027,-0.007992,0.019398,9.810753,16873.45356,321.087237,34781.05816
0.5,-0.00016,-0.000099,0.000198,-0.056592,0.009561,9.789262,17408.00535,10.996367,34428.61326
0.51,-0.000098,-0.000121,0.000083,-0.012967,0.012922,9.778972,17193.95447,-195.266683,34556.76167
0.52,0.000083,-0.000156,0.000035,-0.053845,0.057944,9.898119,17054.67526,-25.41031,34269.00142
0.53,-0.000095,-0.000182,0.000118,-0.018197,0.056185,9.825615,17251.16078,-249.249867,34579.36981
0.54,-0.000041,-0.000022,-0.000012,-0.033042,-0.042685,9.792412,17056.17789,-357.838561,34690.66893
0.55,0,-0.000076,0.000041,-0.022437,-0.017607,9.800214,17089.89606,349.317585,34901.03793
0.56,-0.000136,-0.000135,0.00017,-0.057407,0.042069,9.750064,16930.54115,-389.180338,34555.28096
0.57,-0.000084,-0.000003,0.000051,-0.054327,0.045037,9.844313,17260.29559,-29.524121,34898.15695
0.58,-0.000078,-0.000073,0.000109,0.071519,0.005762,9.774297,17112.47975,-132.118141,34511.41028
0.59,-0.000066,-0.000042,0.000056,0.056094,-0.005777,9.800207,17123.62739,213.796737,34452.91442
0.6,0.000063,0.000031,0.000087,-0.043295,0.019077,9.6884,17097.89438,136.414505,34494.316
0.61,-0.000089,-0.000149,0.000136,0.025219,-0.100862,9.849941,17107.43318,178.947977,34655.41438
0.62,0.000045,-0.000041,0.000101,-0.078687,0.032924,9.929765,17234.74636,-99.431529,34285.6729
0.63,0.000029,0.000044,0.000134,-0.0149,-0.059231,9.903397,16916.52669,-73.539932,34650.82833
0.64,-0.000079,0.000104,-0.000055,-0.023045,-0.05661,9.869057,17005.36848,-145.077505,34471.056
0.65,0.000036,0.000014,0.00013,-0.143022,-0.075083,9.740708,17145.22845,-79.888262,34765.11994
0.66,0.000125,0.000101,-0.000046,-0.035719,-0.102145,9.847509,17197.34544,62.749315,34434.32249
0.67,-0.000187,0.000043,-0.000035,0.050077,-0.003828,9.78571,17412.87189,76.794967,34741.55326
0.68,-0.000041,0.000045,-0.00009,-0.079165,0.022347,9.771371,17190.45912,-71.746824,34483.23772
0.69,-0.000224,-0.000006,0.000057,0.029716,0.04993,9.808701,17021.04153,162.147546,34649.29949
0.7,-0.000061,-0.000025,-0.000021,-0.106666,-0.047842,9.874623,16772.36987,115.499899,34253.45056
0.71,-0.000172,-0.000043,-0.000031,0.012744,0.070016,9.694705,16972.08899,248.781682,34560.19268
0.72,-0.000183,0.000015,0.000048,-0.006614,-0.009778,9.725214,17034.23809,-510.149494,34680.57869
0.73,-0.000004,-0.000115,-0.000004,-0.033191,0.047927,9.833538,17029.66218,-19.079709,34300.45175
0.74,-0.000127,-0.000106,0.000071,-0.02772,0.015372,9.866085,16892.57317,-16.789773,34174.94431
0.75,-0.000108,0.000002,0.000083,-0.054908,0.013711,9.858694,17216.88527,131.274382,34345.97045
0.76,0.000137,-0.00015,0.000131,-0.035361,0.064203,9.802026,16900.72458,15.188618,34546.18349
0.77,-0.000047,-0.00003,-0.000073,0.0546,0.045308,9.819781,16915.34306,-26.448284,34340.32314
0.78,-0.00008,0.000036,0.000046,-0.015439,-0.033633,9.815086,16769.70116,143.437912,34629.71543
0.79,-0.000032,-0.000054,0.000154,0.009716,0.0694,9.802314,16824.37864,-1.02895,34575.49351
0.8,-0.000041,-0.000221,-0.000007,0.016856,0.083495,9.822835,17375.22377,245.812123,34828.93666
0.81,-0.000211,-0.000312,0.000007,0.022092,0.079697,9.811242,17013.97471,205.773478,34414.58307
0.82,0.000077,-0.000025,-0.000049,0.019229,0.037039,9.800827,16886.16899,416.193291,34370.3182
0.83,-0.000122,0.00007,0.000067,-0.056411,-0.073885,9.796556,17336.58329,-101.173785,34428.16939
0.84,-0.000035,-0.000033,0.000057,0.055499,0.049054,9.888168,17440.98863,-378.573036,34557.86006
0.85,0.000031,0.00002,0.000072,0.04457,-0.033167,9.73393,17171.55036,-153.148997,34341.74111
0.86,-0.00013,0.000016,-0.000006,-0.026561,-0.014002,9.769539,16889.52985,414.851997,34186.15207
0.87,0.000056,-0.00014,0.000042,0.045351,-0.040365,9.835678,16853.39754,-78.749306,34279.3477
0.88,-0.00004,-0.000144,0.000204,0.038329,-0.087761,9.785513,17221.08127,-188.672389,34450.57251
0.89,0.000088,-0.000069,0.000121,0.062029,0.041408,9.812744,17050.91045,-175.008937,34608.51561
0.9,-0.000006,-0.000257,0.000075,-0.056147,-0.035893,9.811005,16790.55131,-39.869022,34697.19457
0.91,-0.000045,-0.000021,-0.00004,0.062261,0.023843,9.802291,17261.83555,-268.409573,34238.74455
0.92,-0.000063,-0.000044,0.000157,0.01088,0.038098,9.719008,17463.35261,162.402536,34156.15493
0.93,-0.00001,-0.000029,0.000187,-0.050286,0.000731,9.867046,17252.4855,45.480791,34637.28305
0.94,-0.000088,-0.000063,-0.000105,0.053129,-0.039793,9.807804,17370.3044,-38.56342,34664.45756
0.95,0.000097,0.000055,0.000134,-0.037864,-0.020366,9.813772,16982.34654,290.286395,34666.31754
0.96,0.000019,-0.000019,0.000072,-0.018952,-0.02877,9.748342,17322.21986,82.266,34288.46665
0.97,-0.000061,-0.000046,0.000058,-0.080077,-0.010516,9.816093,17066.16936,-22.198895,34601.8318
0.98,0.000092,0.00002,0.000049,0.029918,-0.041776,9.77037,16908.25242,-124.151137,34424.48337
0.99,-0.00009,-0.000084,0.000193,0.062115,0.019821,9.850657,16836.77968,38.051251,34402.09237
1,0.000005,-0.000023,0.000023,-0.029342,-0.03666,9.748971,17331.88065,-120.412487,34187.3343
1.01,-0.000136,-0.000035,0.00013,0.048505,-0.05768,9.720045,17090.82795,215.005891,34767.98243
1.02,-0.000074,-0.000049,0.000034,-0.038351,0.062201,9.807819,16917.49128,-95.755093,34472.44716
1.03,-0.00003,-0.000168,0.000033,0.010697,0.004837,9.804162,17156.48504,-113.616054,34006.73438
1.04,-0.000114,0.000049,-0.000014,-0.00935,-0.071009,9.889448,17266.20568,96.405841,34311.57969
1.05,0.000011,0.000104,0.000026,-0.008603,0.059509,9.728461,17029.79989,-112.910991,34341.26651
1.06,-0.000092,-0.000012,0.000053,0.026006,-0.05989,9.741952,17100.58292,-243.598891,34502.04975
1.07,-0.000126,0.000012,0.00023,0.012278,0.050406,9.874647,17191.6788,147.067176,34896.35703
1.08,-0.000062,-0.000046,-0.000038,0.065389,-0.014558,9.845569,17090.87428,89.393341,34648.41264
1.09,-0.000012,-0.000138,-0.000043,-0.030837,-0.027966,9.818571,16949.25247,-389.674733,34340.74534
1.1,0.000072,-0.000108,0.000148,-0.006891,0.041337,9.715045,16711.56829,-0.349677,34831.14465
1.11,0.000094,-0.000006,0.000102,0.055678,-0.029992,9.88011,17203.20605,429.191719,34606.88538
1.12,0.000131,-0.000046,0.000002,0.056087,-0.058396,9.803977,17570.41994,355.752042,34687.2532
1.13,-0.000158,-0.000025,0.000183,0.032866,-0.040445,9.769537,17427.50101,-94.603638,34317.13449
1.14,0.000044,-0.000111,-0.000021,-0.016113,0.036232,9.851776,17172.62039,300.217862,34685.04063
1.15,-0.000083,-0.000003,0.000036,-0.021932,0.04041,9.87998,17226.89992,12.377554,34438.67192
1.16,-0.000021,-0.000003,0.000028,0.044992,-0.037338,9.764694,17208.83419,145.339779,34462.36417
1.17,-0.000043,-0.000011,0.000046,0.013395,0.040111,9.827994,17336.32916,340.189365,34161.38029
1.18,0.000004,0.000135,0.000105,-0.019945,-0.046976,9.869875,17162.32086,-261.904926,34471.036
1.19,-0.000035,-0.000176,0.000087,-0.00815,0.092127,9.749674,17097.91428,135.402494,34660.36586
1.2,-0.000209,-0.000152,0.000128,-0.017145,-0.032563,9.898477,17220.89827,51.703947,34408.81516
1.21,0.000022,-0.000042,-0.000096,0.0609,-0.025195,9.710977,17152.82592,-69.345349,34671.71158
1.22,-0.000072,-0.000088,0.000109,0.056767,0.005957,9.750819,17063.03101,17.658108,34226.10089
1.23,0.000158,-0.00001,-0.000014,-0.075197,0.019409,9.796723,17145.18543,-100.752836,34594.80773
1.24,-0.000142,-0.000034,0.000038,0.006702,0.019183,9.788574,17005.76249,356.084758,34803.87468
1.25,-0.00014,-0.000019,-0.000047,-0.014,0.032366,9.801534,17491.31911,-110.263938,34648.62322
1.26,0.000058,0.000064,0.000148,-0.014193,0.031384,9.708774,17052.37118,-140.311176,34658.59206
1.27,-0.000081,0.000016,0.000042,0.061367,0.021768,9.769089,16939.79212,441.644565,34527.0136
1.28,-0.000073,-0.000058,-0.00006,-0.009081,0.060718,9.834624,17219.90281,-77.362226,34521.83201
1.29,-0.000165,0.000041,0.000037,-0.088632,-0.050672,9.816261,17001.47447,269.570126,34765.05595
1.3,-0.000021,0.000059,-0.000098,0.088434,0.037734,9.797432,17177.34424,-104.981779,34570.8211
1.31,-0.000108,-0.000013,0.000088,0.028556,0.000653,9.792279,17204.42231,-165.13212,34634.82712
1.32,-0.000072,0.000061,0.000072,0.018819,-0.106224,9.857504,16742.10878,-113.710847,34452.60114
1.33,-0.000145,-0.00011,0.000124,0.026562,-0.021905,9.764924,17028.13607,344.416692,34275.98886
1.34,0.000001,-0.000194,0.000171,-0.059919,0.013463,9.814754,17119.19161,-96.580712,34345.69488
1.35,0.000013,0.000089,0.00002,0.008734,0.084877,9.698204,16951.12283,-279.402425,34607.50634
1.36,-0.000065,-0.000127,0.000275,-0.035774,-0.038386,9.854416,17154.83862,-235.689596,34591.5797
1.37,-0.000055,0.00011,-0.000003,-0.012474,-0.046762,9.81773,17070.51474,-530.238913,34508.49117
1.38,-0.000025,-0.000175,0.00002,0.020145,0.079943,9.820051,16936.48092,-199.910346,34310.22388
1.39,0.000046,-0.000138,0.000147,-0.021799,-0.024911,9.767142,16648.33682,-224.134172,34096.47491
1.4,-0.00001,-0.00012,0.00001,0.024231,0.04055,9.796216,17188.6688,-210.515591,34691.35037
1.41,-0.00008,-0.000033,0.000007,-0.006687,0.068405,9.812447,16996.49049,23.980826,34415.22294
1.42,-0.000112,-0.000055,-0.000036,0.024734,-0.053783,9.777441,16982.45585,6.347779,34463.34887
1.43,-0.000152,-0.000033,0.000131,-0.105924,-0.067765,9.825711,17169.70087,-251.030641,34384.74999
1.44,-0.000173,-0.000028,-0.000003,0.061849,-0.013209,9.748269,16791.40919,284.655464,34834.70207
1.45,-0.000125,0.000046,0.000008,0.004641,0.056783,9.799354,17073.91235,59.715504,34462.7521
1.46,0.000091,-0.000097,0.000087,0.045614,-0.003091,9.74641,17024.02467,374.111328,34605.63053
1.47,-0.000059,-0.000094,0.000105,-0.044925,-0.012656,9.920611,17068.02152,-84.845576,34622.83066
1.48,-0.000053,0.000024,0.000049,0.029043,-0.011764,9.821871,17190.57148,-116.891707,34502.47887
1.49,-0.000134,-0.000038,0.000058,0.0106,-0.021896,9.802271,17205.94461,17.128401,34451.78432
1.5,0.000044,-0.000108,0.00005,-0.012553,0.036859,9.884832,17122.07223,7.864696,34508.18015
1.51,-0.00019,0.000028,-0.000041,0.065914,-0.015722,9.834951,16982.10359,66.781464,34447.90941
1.52,-0.000197,-0.000034,0.00015,-0.03584,-0.054093,9.811269,16853.96453,-164.41007,34521.69733
1.53,-0.000172,-0.000124,-0.000011,0.030287,-0.003012,9.848574,16925.82897,-249.61332,34730.13505
1.54,-0.000138,0.000004,-0.000017,0.04117,0.037652,9.799896,16788.22998,-168.094189,34735.80887
1.55,-0.000102,0.000022,-0.000012,-0.067352,0.089416,9.783925,16938.1263,-96.535493,34251.96516
1.56,-0.000002,-0.000113,-0.000052,0.036422,0.02423,9.790365,17067.60064,-366.600921,34688.93605
1.57,-0.0002,0.000134,0.000026,0.090689,0.033551,9.806875,16973.6723,96.160826,34440.66492
1.58,-0.000018,-0.000031,0.000068,-0.020555,-0.047832,9.744821,16813.0175,-154.116325,34800.29659
1.59,-0.000035,0.000138,-0.000037,0.028438,-0.021712,9.785103,17110.24086,-50.628897,34772.8276
1.6,-0.000175,-0.000117,-0.000063,0.025163,-0.017105,9.839829,16745.05664,-82.834927,34721.51378
1.61,0.000026,0.000043,-0.00003,-0.031574,-0.025602,9.853003,16892.0452,62.924346,34467.53525
1.62,-0.000161,-0.00006,0.000175,-0.033603,0.030367,9.832588,17337.33416,104.000208,34585.40991
1.63,-0.000285,0.000017,-0.00004,0.000502,-0.081766,9.742722,17020.97694,-127.843506,34278.09601
1.64,0.000051,-0.000123,0.000029,-0.054046,-0.063589,9.850172,16885.1533,-400.647474,34500.47534
1.65,-0.000171,-0.000114,0.000175,-0.042976,-0.061276,9.782432,17136.25635,389.62285,34612.7904
1.66,0.000032,-0.000064,-0.000022,-0.004753,-0.082434,9.837369,17372.46768,-210.267349,34413.62689
1.67,-0.000205,-0.000063,0.000051,0.035769,-0.029406,9.847371,17145.59639,-147.099093,34705.02265
1.68,-0.000047,-0.000037,-0.000044,-0.076781,-0.027256,9.79935,17241.4726,-38.043084,34454.02127
1.69,-0.000045,-0.000032,0.000166,0.003467,0.056694,9.791137,17022.4602,-170.157132,34856.80798
1.7,0.000123,-0.000041,-0.000013,-0.049881,0.010586,9.815067,17079.41684,287.911853,34362.10931
1.71,-0.000045,-0.000082,-0.000011,0.02206,-0.016491,9.815908,17443.94338,-91.581039,34523.29228
1.72,-0.000045,-0.00012,0.000107,-0.028178,0.027723,9.774766,17192.25789,206.226289,34830.84493
1.73,-0.000049,-0.000007,0.000038,-0.030608,0.057438,9.769891,17100.50317,-196.076073,34845.63821
1.74,-0.000103,-0.000111,0.000033,0.000119,0.027906,9.791702,17049.02101,-227.343994,34300.03521
1.75,-0.000087,-0.000008,0.000053,0.044486,-0.028655,9.857619,16997.76171,-435.810461,34489.53943
1.76,-0.000158,-0.000023,-0.000064,-0.076758,-0.06666,9.810632,16972.4659,275.677553,34698.26684
1.77,-0.000093,-0.000054,-0.000127,0.070278,0.079261,9.765047,17039.9496,-458.119572,34322.68916
1.78,-0.000031,-0.000016,0.00004,-0.001556,-0.02429,9.701923,16983.10283,113.318987,34208.90525
1.79,-0.000076,-0.000061,-0.000032,0.035532,-0.018573,9.874706,17005.51835,-294.203042,34808.80714
1.8,-0.000063,-0.000077,0.000062,0.01359,-0.026239,9.773312,16983.94825,-202.494951,34563.58737
1.81,-0.000145,-0.000008,0.000066,-0.009366,0.022244,9.783222,16924.17135,-109.455135,34550.69605
1.82,-0.000052,-0.000067,0.000102,0.137835,0.010128,9.751429,16956.13896,-130.948671,34850.24236
1.83,-0.000185,0.000011,0.000075,0.003869,0.056206,9.828443,17076.86424,-132.707189,34840.54014
1.84,-0.000015,0.000005,-0.000003,-0.01639,-0.032716,9.768482,17167.83103,251.646641,34426.76857
1.85,-0.000062,0.000027,0.000091,-0.058348,-0.025464,9.820233,17045.22271,84.364074,34678.65935
1.86,-0.000021,-0.000161,0.000101,-0.02793,0.079907,9.825875,16999.54971,374.746137,34332.94256
1.87,0.000063,0.000059,0.000074,-0.021914,-0.001717,9.879441,17187.39879,-51.930175,34497.90334
1.88,-0.000175,0.000054,0.000041,-0.083914,0.011551,9.939076,17050.37152,441.402797,34416.21252
1.89,-0.00026,0.000004,-0.000077,0.04917,-0.044597,9.813459,16720.72711,207.687675,34608.49847
1.9,-0.000153,-0.000084,0.000165,-0.011688,0.136795,9.774266,17161.06559,132.350107,34911.47336
1.91,-0.000072,-0.000005,0.000206,-0.01352,-0.016369,9.737236,16932.3782,-67.714823,34696.30292
1.92,0.0001,-0.000038,0.000033,-0.162403,-0.011797,9.832634,17025.60056,36.418103,34302.58846
1.93,-0.000149,-0.000089,0.000091,-0.021412,0.024212,9.844348,16966.73698,147.446037,33917.17543
1.94,-0.000005,-0.000019,0.00014,0.034225,-0.083644,9.881529,17149.53292,-479.637469,35004.62632
1.95,-0.000107,-0.000034,0.000117,0.042164,0.039399,9.807807,17306.24375,301.470917,34861.21203
1.96,0.000012,0.000065,0.000088,-0.00026,-0.026788,9.827987,16906.96578,6.534544,34371.84616
1.97,-0.000066,0.000003,-0.000034,0.045329,-0.028189,9.847584,17182.51618,-57.765465,34643.35419
1.98,-0.000183,0.000022,0.000049,-0.023038,0.029089,9.800173,16980.5197,22.581311,34382.37493
1.99,-0.000013,-0.000177,0.000022,0.042202,0.094787,9.818494,16970.66858,-153.682804,34497.2951
2,-0.000092,-0.000104,-0.000143,-0.024289,-0.02109,9.838029,17165.99283,208.605189,34377.92893
2.01,-0.000069,0.00005,0.000087,-0.024431,0.048124,9.822024,17230.70078,-169.714644,34826.69898
2.02,-0.000092,-0.00003,0.00012,0.04452,-0.02721,9.760299,17071.85185,-169.799622,34518.08023
2.03,-0.00028,-0.00004,0.000101,-0.036685,0.019554,9.768741,17231.15846,-1.123173,34643.26181
2.04,0.00002,0.00012,0.000153,0.034193,-0.101278,9.77464,17071.29189,424.312442,34747.05799
2.05,-0.000012,-0.000002,0.000122,-0.008089,-0.09,9.777354,17132.95413,78.067508,34988.65456
2.06,-0.000087,-0.000032,0.000133,-0.073685,-0.003435,9.795565,17150.8003,42.30501,34363.69309
2.07,0.000131,-0.000043,0.000049,0.036607,-0.041366,9.727264,17269.3297,-116.82824,34517.23643
2.08,-0.000022,0.000089,0.000051,-0.02673,0.006483,9.812157,17516.90447,-164.779397,34748.9277
2.09,0.000089,-0.000113,0.000037,0.00839,0.060204,9.790028,16991.19673,-290.592806,34420.16723
2.1,-0.000057,0.00004,0.000145,-0.010307,-0.041488,9.778377,16958.18806,-31.124549,34477.60571
2.11,-0.000171,-0.000109,0.000083,0.051579,0.017968,9.678798,16992.73531,-50.131073,34756.15495
2.12,-0.000097,-0.000162,0.000144,0.059615,-0.097872,9.787394,17226.67556,-159.377125,34554.33332
2.13,0.000004,0.000014,0.000012,0.048088,0.006657,9.835162,16990.08395,210.921718,34264.99884
2.14,0.00005,-0.00005,0.000149,0.043035,0.014958,9.74577,17182.98305,131.436409,34474.58277
2.15,-0.000119,-0.000103,0.000071,0.018446,-0.034078,9.68862,16984.46073,60.322335,34253.4958
2.16,-0.000101,0.00003,0.000076,-0.014101,0.027321,9.81363,16938.19315,-282.887891,34630.10904
2.17,-0.00012,-0.000022,0.000023,0.000724,0.085948,9.821191,16878.73357,-75.520196,34141.2991
2.18,0.00004,-0.000084,0.000015,0.04537,0.016519,9.888846,16957.77629,187.570767,34621.15504
2.19,0.000066,0.000167,0.000228,-0.017776,0.058519,9.89755,17329.32303,-548.397693,34011.74163
2.2,-0.000034,-0.00001,0.000187,-0.017953,0.052046,9.741138,17410.88988,74.416696,34280.77086
2.21,-0.00005,-0.000114,0.000064,0.016095,0.036795,9.767033,17238.6132,87.530735,34624.87225
2.22,0,-0.000101,-0.00009,-0.087811,0.00302,9.791882,17175.84974,164.646246,34669.73803
2.23,-0.000165,0.000029,-0.000013,0.009801,0.015122,9.849186,17133.69547,96.115448,34602.36344
2.24,-0.000052,-0.00001,0.000108,0.077768,0.022064,9.732821,17098.90651,5.547793,34495.88442
2.25,-0.000069,0.000015,-0.000024,0.033988,0.020049,9.815498,17117.37533,134.139425,34527.33714
2.26,-0.000071,-0.000118,0.000152,0.078976,0.013978,9.790792,17058.37881,326.738288,34900.70754
2.27,-0.000042,-0.000093,0.000023,0.023907,-0.077762,9.855651,17106.99234,-140.867187,34829.3495
2.28,-0.000059,0.000032,-0.000086,0.004109,0.084385,9.84235,16781.60081,296.546357,34796.62892
2.29,-0.00013,-0.000062,0.000275,0.019693,0.010463,9.750464,16986.6084,-27.578879,34347.90936
2.3,0.000044,-0.000038,0.000116,-0.002645,0.016027,9.857303,17114.53753,-215.340825,34277.7195
2.31,0.00014,-0.000049,0.000022,0.022667,0.035657,9.842707,17112.67063,-126.538542,34524.46559
2.32,0.000066,0.000014,0.000112,-0.024485,0.016492,9.79834,17018.98106,-154.011227,34583.34806
2.33,-0.000084,0.000139,0.000203,-0.060096,-0.072796,9.849785,16894.94683,82.095135,34435.71703
2.34,0.00001,0.000031,-0.000123,0.072287,0.071694,9.767301,17304.81369,-101.478256,34670.67817
2.35,0.000016,-0.000046,0.000091,0.075599,0.078505,9.771762,17242.85965,-29.033938,34301.45473
2.36,0.00002,-0.000058,-0.000094,0.025758,0.085913,9.813793,17212.49777,-259.940058,34618.11872
2.37,-0.000007,-0.000093,0.000025,0.060155,-0.028661,9.792636,16779.75538,-92.665667,34514.38148
2.38,-0.000092,-0.000058,-0.000148,0.04514,-0.006204,9.815626,16954.7338,29.392212,34647.47991
2.39,0.000067,-0.000007,0.000151,0.006531,-0.048431,9.882839,17093.73123,25.624959,34798.8966
2.4,0.000133,-0.000027,-0.000104,-0.004756,-0.014207,9.787397,17212.88029,60.42161,34435.42132
2.41,-0.000117,-0.000134,0.00001,0.005111,-0.043919,9.852005,16850.86049,-132.825883,34713.91169
2.42,-0.000032,-0.000203,0.000084,-0.01484,0.040892,9.766181,17090.59086,123.696762,34275.02592
2.43,-0.000171,-0.000003,0.000044,-0.048244,-0.043454,9.82059,16709.65563,10.704206,34049.86583
2.44,-0.000067,-0.000035,0.000007,-0.0632,0.043259,9.792988,17006.10817,-330.021309,34551.34354
2.45,-0.000093,-0.000176,0.000051,0.045963,-0.017022,9.849156,17148.25429,-264.618445,34746.87623
2.46,0.000122,0.000144,0.000169,-0.04881,-0.052391,9.838331,17127.28602,-50.636763,34341.87382
2.47,0.000022,-0.000088,0.00018,-0.025443,0.053829,9.77491,16885.6348,-79.016058,34704.17604
2.48,-0.000044,-0.000035,0.000028,0.026784,-0.038724,9.72327,17042.79095,-343.383345,34201.54912
2.49,-0.000031,-0.000067,0.000046,0.072128,-0.008704,9.856792,17109.39591,-73.262756,34698.24141
2.5,-0.000134,-0.000061,0.000253,0.010272,-0.082967,9.828384,17163.63358,149.647403,34762.96746
2.51,-0.000046,-0.00005,0.0001,0.054755,0.06512,9.889623,17236.07825,49.366709,34158.17897
2.52,0.000022,-0.000126,0.000036,0.020734,-0.003662,9.812272,17203.79083,156.856539,34645.83312
2.53,0.000041,-0.000005,0.000064,-0.055988,0.037622,9.844472,16838.10496,79.083595,34744.27417
2.54,0.000096,-0.000088,0.000061,0.018535,-0.036795,9.840484,17159.18866,-77.599071,34145.62136
2.55,-0.000085,0.000101,-0.000117,-0.025856,0.062768,9.778756,16908.55722,342.90771,34557.80035
2.56,-0.000098,-0.000075,0.000112,-0.024746,-0.014536,9.757802,17266.61908,-43.662425,34323.27526
2.57,0.000013,0.000093,-0.000084,-0.042973,-0.012772,9.687229,17329.71185,92.043049,34779.5629
2.58,0.000026,-0.000054,-0.000004,0.099777,0.019515,9.8229,17095.00418,-229.72619,34829.00531
2.59,0.000008,-0.000109,-0.000128,-0.042456,0.010491,9.808006,17016.63423,60.220041,34609.99624
2.6,-0.000072,-0.000159,-0.000003,0.005772,-0.072112,9.802562,17246.91646,88.643911,34813.61969
2.61,-0.000007,-0.000001,0.000192,-0.092387,-0.008914,9.764437,17055.37348,201.985137,34853.89959
2.62,-0.000057,-0.000162,-0.000012,-0.029203,-0.015242,9.849736,17026.88876,-215.873076,34528.63005
2.63,-0.00012,-0.000135,0.000092,0.061103,0.002238,9.754926,17325.68473,56.760341,34743.69521
2.64,-0.000096,-0.000201,0.000114,0.074184,-0.068699,9.78084,17079.11751,-366.737841,34376.79511
2.65,-0.000049,0.000002,0.000063,-0.009942,-0.035844,9.87397,16806.76351,-373.122833,34492.56887
2.66,0.000016,-0.000025,0.000162,0.020532,0.053869,9.79333,17286.44584,104.805999,34626.59818
2.67,-0.000002,0.000006,0.000089,0.043572,-0.00698,9.8007,17171.42773,-69.519424,34859.67981
2.68,-0.000167,-0.000043,0.000031,0.015317,0.019859,9.836189,17229.42995,115.511841,34129.5763
2.69,-0.000021,-0.000147,0.000196,-0.010113,-0.073842,9.79209,17271.73022,216.941113,34534.31291
2.7,-0.00003,-0.000134,-0.000096,-0.132373,-0.013861,9.767464,16751.72412,175.181566,34459.73255
2.71,-0.000064,-0.000037,-0.000009,0.040889,-0.134006,9.906823,17018.57542,-75.507872,34496.38804
2.72,-0.000031,-0.000085,0.000102,-0.016788,-0.078768,9.828558,16873.34961,63.822393,34791.01634
2.73,-0.000103,-0.000032,0.000139,0.024313,0.021216,9.91551,17065.11048,-229.21992,34473.21937
2.74,0.000185,-0.000117,0.000013,-0.041039,0.014672,9.814938,17036.21196,-54.620593,34605.37555
2.75,-0.000113,0.00004,-0.000047,-0.033648,0.014463,9.869916,17051.4535,-11.154425,34549.78161
2.76,-0.000082,-0.000031,-0.000032,-0.04211,0.022391,9.85737,16840.2545,69.428637,34727.85355
2.77,-0.000123,-0.00007,-0.00013,0.032426,-0.079167,9.821516,17133.06634,19.998293,35085.89182
2.78,-0.000166,-0.000065,0.000067,-0.019097,0.060809,9.801216,17148.21507,400.337758,34397.10261
2.79,-0.000056,-0.000183,0.000013,0.097369,-0.061007,9.83227,16909.64681,-291.437623,34339.66239
2.8,0.00003,0.00002,0.000047,-0.043321,0.087987,9.88537,16890.57553,-25.682048,34584.107
2.81,-0.000117,0.000026,0.000003,-0.045733,0.037435,9.805425,17004.46684,-6.69704,34404.38193
2.82,-0.000141,-0.000099,0.00018,-0.080431,-0.051667,9.812404,16892.18138,-209.624414,34460.34379
2.83,-0.00002,0.000072,0.000012,0.025641,-0.018506,9.822089,17318.04624,-475.845678,34670.13842
2.84,0.000042,-0.000081,0.00004,0.0156,0.014316,9.748792,17204.7746,-92.795841,34652.34912
2.85,0.000178,0.000038,0.00001,0.006903,0.026451,9.733545,17346.46381,-149.36693,34594.09931
2.86,-0.000047,0,0.000159,0.076397,0.07236,9.815565,16976.98154,-63.487694,34531.69268
2.87,-0.000082,-0.000181,0.000029,0.103631,-0.039736,9.76064,17061.46906,-134.319895,34443.7503
2.88,-0.000038,-0.000019,0.000169,-0.030815,-0.03539,9.899031,17298.39093,289.821472,34611.98919
2.89,-0.000012,0.000042,-0.000042,0.002512,-0.002704,9.825611,17243.00125,-71.976914,34455.22763
2.9,0.000036,0.000154,0.000121,0.07898,0.008472,9.788873,17116.89368,213.639107,34590.80097
2.91,-0.000017,-0.000015,0.00021,0.013612,0.06257,9.797536,16818.46072,175.479053,34964.05112
2.92,-0.00012,-0.000038,0.000094,0.070167,0.015353,9.798859,17149.41774,-326.716832,34589.76512
2.93,0.000025,-0.000067,0.00008,0.024598,0.098105,9.795549,17456.1102,-55.025213,34624.71815
2.94,-0.000064,-0.000018,0.000042,0.068434,0.028187,9.815464,17023.98385,82.709101,34135.17256
2.95,-0.000139,-0.000031,0.00013,0.002756,0.040848,9.838142,16928.56064,-78.559222,34638.94891
2.96,-0.000124,-0.00005,0.000112,0.018655,0.03283,9.765063,17099.1304,-168.957412,34482.34277
2.97,-0.000133,-0.000013,-0.000039,-0.032031,-0.049217,9.790635,16840.91771,-179.967527,34436.94352
2.98,0.00006,0.000173,0.00023,-0.010173,-0.01796,9.834073,17133.38133,320.457562,34482.33978
2.99,-0.000059,0.000036,0.000064,-0.046546,-0.01174,9.850495,16970.19617,4.075418,34097.83107
3,-0.000031,0.000106,-0.000061,0.083475,0.002907,9.866989,17204.71451,179.052119,34365.61884
3.01,0.000053,-0.000033,0.000177,0.038755,-0.049944,9.819643,16966.32088,330.905647,34555.33341
3.02,-0.000023,-0.000087,0.000078,-0.109914,-0.018897,9.827785,16980.18425,-140.521461,34863.60063
3.03,0.000025,-0.000026,0.000096,-0.149922,0.026504,9.800767,17053.18417,-158.895106,34616.44054
3.04,-0.000085,-0.000215,0.000132,-0.128532,0.026627,9.767095,17422.64196,-203.486452,34194.18225
3.05,0.000022,-0.000016,0.00006,-0.229213,0.001618,9.772129,17382.25201,-0.289956,34768.17489
3.06,0.000051,-0.000069,-0.000008,-0.184621,-0.05406,9.76136,17239.3101,-249.797619,34241.22959
3.07,-0.000056,0.000075,-0.000067,-0.254538,-0.062989,9.767358,17316.21262,-120.628149,34615.45816
3.08,0.000065,-0.000084,-0.000042,-0.271476,0.001298,9.963102,16865.72082,145.102684,34391.01612
3.09,0.000071,-0.000037,-0.00006,-0.292122,-0.078276,9.835754,16877.73481,204.750438,34678.40244
3.1,-0.000071,0.000053,0.000158,-0.351134,-0.044054,9.79031,17047.88468,203.199763,34292.80048
3.11,-0.000077,0.000007,0.000116,-0.317059,0.00315,9.819056,17275.43556,274.317096,34676.03276
3.12,-0.000096,0.000002,0.000051,-0.353377,0.053989,9.848257,17025.01079,-176.693605,34570.57149
3.13,-0.000086,-0.000072,0.000059,-0.402603,-0.010971,9.740427,16864.65066,32.638527,34488.43897
3.14,-0.000037,-0.000078,0.000016,-0.371643,-0.010661,9.900369,17041.29478,42.775654,34361.45212
3.15,0.000058,-0.00001,0.000131,-0.46532,0.07388,9.76181,17078.67933,14.520984,34243.83146
3.16,0.000065,0.000023,0.000252,-0.542249,-0.042645,9.823577,17368.64029,-51.740659,34511.47055
3.17,-0.000111,0.000042,0.000026,-0.437461,-0.043535,9.854173,17263.46348,142.343579,34169.4052
3.18,0.000123,0.00012,-0.000117,-0.540275,-0.02586,9.79195,17441.62238,308.963009,34452.51714
3.19,-0.000124,0.000029,0.000123,-0.460888,0.008171,9.821631,17182.48611,98.031597,34356.13969
3.2,0.000025,-0.000035,0.000093,-0.642635,0.007363,9.820295,17116.31911,55.36889,34847.80289
3.21,0.000018,-0.000035,0.000143,-0.515414,-0.043395,9.772058,16648.40254,-72.996524,34346.59428
3.22,-0.000237,0.000027,-0.000037,-0.666587,-0.032695,9.839414,17340.92348,-197.137134,34349.17328
3.23,0.000044,-0.000049,-0.000024,-0.686746,0.061549,9.808127,16908.72183,17.937579,34598.73592
3.24,-0.000007,-0.000108,-0.000026,-0.71824,-0.032839,9.739271,17150.85054,-78.620575,34525.42942
3.25,-0.000176,-0.000031,0.000097,-0.77014,0.055278,9.849404,16916.29203,-147.997274,34415.35308
3.26,0.00005,-0.000041,0.000145,-0.77246,-0.023203,9.884752,16861.48982,388.665926,34544.72065
3.27,-0.000038,-0.000037,0.000104,-0.78483,0.009641,9.831022,17077.36052,-79.452798,34494.77346
3.28,0.000053,-0.000058,0.000032,-0.783728,-0.010507,9.789563,17389.05725,340.219082,34456.73394
3.29,-0.000053,-0.000021,-0.000025,-0.792427,-0.077829,9.808358,17056.93674,359.663178,34327.63115
3.3,0.00005,-0.000064,0.000094,-0.813242,-0.06632,9.828042,17090.96844,134.861152,34425.37792
3.31,-0.000111,0.000003,0.000088,-0.891269,-0.129935,9.710965,17264.1313,-281.439297,34686.54938
3.32,-0.000076,0.000148,0.000086,-0.864164,0.025846,9.784816,17370.63629,-226.331631,34649.05922
3.33,0.000116,0.000055,-0.000004,-0.962863,-0.009672,9.850564,17387.67489,-89.978604,34558.07285
3.34,-0.000073,0.000009,0.000059,-0.916382,-0.073814,9.828467,17060.13126,-271.673821,34540.94479
3.35,-0.000035,-0.000054,-0.000104,-0.945966,-0.010391,9.808527,17411.65014,-24.662663,34806.18864
3.36,-0.000059,-0.000222,0.000086,-0.930244,-0.00723,9.758366,16499.33367,-36.136519,34084.88553
3.37,-0.000103,-0.000091,0.000034,-0.984269,0.004586,9.863238,16850.13058,42.115403,34820.42277
3.38,-0.000016,-0.000154,-0.000099,-1.059516,-0.008768,9.762532,16991.0205,283.207139,34531.07206
3.39,-0.000132,-0.000207,-0.000031,-1.006658,-0.028712,9.654705,17029.41429,-294.263944,34308.29118
3.4,0.000099,-0.000121,0.00011,-0.993026,-0.034479,9.751883,16936.26264,-29.781255,34886.44433
3.41,-0.000159,-0.000003,0.000026,-1.132824,-0.054383,9.74186,17415.87112,206.182884,34566.88034
3.42,-0.000045,0.000021,0.000207,-1.085058,0.004984,9.801478,17169.06943,245.17132,34272.63917
3.43,-0.000022,-0.000018,-0.000031,-1.078842,-0.042859,9.834816,17051.46772,154.215488,34347.1299
3.44,0.000011,-0.00005,0.000126,-1.119417,0.019573,9.835365,17390.6237,89.094871,34616.57897
3.45,-0.000043,0.000123,-0.000119,-1.149731,0.058552,9.844419,17130.16237,-87.775021,34636.7987
3.46,-0.000065,0.000048,0.000023,-1.168638,0.083984,9.886815,16997.81402,-109.254816,34528.45486
3.47,-0.000109,-0.000052,-0.000067,-1.240118,-0.111937,9.775139,17333.30798,-205.392467,34699.3013
3.48,-0.000029,0.000184,0.000154,-1.15813,0.043786,9.83794,17278.58372,-34.485005,34469.76601
3.49,-0.000136,-0.000105,0.000018,-1.196855,0.045441,9.840448,17182.52212,-126.527238,34224.54029
3.5,0.000048,-0.0001,-0.000007,-1.232416,0.007228,9.857674,17358.30415,-275.935326,34427.34871
3.51,0.000038,0.000047,0.000021,-1.256443,-0.032345,9.764943,16930.5337,-39.378197,34713.76185
3.52,-0.000137,-0.000164,-0.000007,-1.167649,0.031191,9.847079,16982.18289,-68.375536,34602.78336
3.53,-0.000234,0.000037,-0.000001,-1.270362,-0.002869,9.865206,16953.58039,88.683716,34787.77464
3.54,0.000003,0.000134,0.000156,-1.278471,0.056289,9.805,17168.32721,356.091759,34671.50395
3.55,-0.00014,0.000047,0.000155,-1.2781,0.025618,9.847912,17197.10943,-523.248558,34438.13601
3.56,-0.000105,-0.000112,0.000044,-1.202916,-0.018216,9.888406,17264.09025,-246.370569,34502.68177
3.57,-0.000179,0.0001,-0.000156,-1.336566,-0.043153,9.697186,17235.8875,210.286938,34580.96697
3.58,-0.000136,-0.000052,0.000034,-1.268911,0.070952,9.747801,17074.90211,70.493628,34151.47572
3.59,-0.000025,-0.000005,0.000035,-1.335562,-0.013706,9.730508,17116.96161,-174.639158,34486.37926
3.6,0.00006,-0.000215,0.000054,-1.325647,0.013489,9.781913,16799.24017,-384.918928,34497.23167
3.61,-0.000102,-0.000017,0.000073,-1.387469,0.005443,9.835399,17163.13662,65.389805,34266.1451
3.62,-0.000119,-0.000085,0.000123,-1.414805,-0.005912,9.833704,16915.17293,-212.70497,34614.4074
3.63,-0.000009,-0.000088,0.000232,-1.490079,0.014718,9.890192,17250.41876,89.451705,34644.17782
3.64,0.000162,-0.000156,0.00008,-1.422973,0.062755,9.792094,17391.91016,-26.748599,34519.82032
3.65,0.00018,0.00004,0.000073,-1.337202,-0.008734,9.750768,17260.57651,-275.409312,34307.74035
3.66,-0.000058,-0.000076,0.000035,-1.456006,0.115489,9.741227,17084.39355,354.792453,34363.12858
3.67,-0.000088,0.000036,0.000019,-1.390829,0.068734,9.821395,17090.7192,-149.403853,34680.55873
3.68,-0.000078,-0.000134,0.000049,-1.373599,-0.099119,9.776419,17155.47504,9.131968,34427.63993
3.69,-0.000117,-0.000044,0.000145,-1.451049,-0.088391,9.824355,17002.44481,-337.550824,34333.29372
3.7,-0.000008,0.000015,0.000085,-1.348825,-0.038399,9.774898,17175.95365,-516.543546,34832.129
3.71,-0.000034,-0.00004,0.000027,-1.371105,0.042231,9.75508,16885.57539,78.747069,34844.61561
3.72,0.000027,-0.000123,0.000171,-1.337074,0.045051,9.806897,16539.10694,-296.108116,34376.5731
3.73,-0.000036,-0.000094,0.000011,-1.450078,0.026979,9.840437,17073.67802,207.678985,34910.52467
3.74,-0.000099,-0.000015,-0.000009,-1.310711,-0.03009,9.884186,16992.49053,262.05969,34504.90052
3.75,0.00006,-0.000097,-0.000145,-1.414236,0.025083,9.801211,17008.0277,179.899477,34375.87929
3.76,-0.000103,-0.000204,0.00005,-1.392561,0.071144,9.773288,16822.05825,220.226952,34603.65132
3.77,0.000053,0.000028,-0.000063,-1.355153,-0.013822,9.804965,17083.76821,42.689681,34152.92221
3.78,-0.000106,0.000127,0.000081,-1.429257,0.009102,9.709064,17191.21303,357.293623,34546.84032
3.79,-0.000039,0.000063,0.000268,-1.404725,0.048906,9.847991,17195.15806,41.067187,34789.06524
3.8,0.000074,-0.000017,0.000085,-1.468798,-0.055588,9.786552,17204.21254,-429.218323,34708.08554
3.81,0.000014,-0.000082,-0.000039,-1.294031,-0.021556,9.806387,17273.5706,-382.874937,34505.16694
3.82,-0.000035,-0.000111,0.000048,-1.393905,0.014343,9.762192,17257.36794,276.037021,34431.15071
3.83,-0.000031,0.000176,-0.000021,-1.364556,0.022821,9.858095,17579.95255,99.328551,34576.2777
3.84,-0.00005,-0.000043,0.000092,-1.415312,0.043815,9.901393,17178.4725,112.971641,34724.51054
3.85,0.000052,-0.000071,-0.000018,-1.327414,0.033219,9.68693,16894.81619,128.990891,34653.75758
3.86,-0.000183,-0.00011,0.0001,-1.293985,0.093824,9.867073,17667.56124,91.943363,34521.93271
3.87,-0.000035,-0.000117,0.000021,-1.327851,0.040511,9.954918,16963.32148,43.360873,34513.5343
3.88,-0.000037,0.000015,0.000002,-1.380189,-0.020177,9.861381,16815.3076,-239.174333,34507.70908
3.89,-0.000061,-0.000187,-0.000047,-1.324341,-0.106775,9.818164,17011.93424,299.407661,34739.97491
3.9,0.000102,-0.00022,0.000024,-1.31108,-0.046318,9.825887,17100.21345,196.257959,34502.82724
3.91,-0.00002,-0.000061,-0.000017,-1.306732,-0.089152,9.832608,16875.98719,-331.042993,34569.79144
3.92,-0.000045,-0.000029,0.000046,-1.202733,0.086034,9.751213,17182.49492,200.417902,34053.31232
3.93,-0.000203,-0.000042,-0.000021,-1.363799,0.002688,9.821048,16909.48846,1.15027,34509.95936
3.94,-0.000087,-0.000009,0.00011,-1.353619,-0.036925,9.874417,16674.44297,-13.941566,34472.90793
3.95,0.000039,-0.000072,0.000134,-1.263774,0.051091,9.805567,17262.19302,-220.469243,34857.34188
3.96,0.000063,0.000071,0.000175,-1.212833,-0.026535,9.781479,16871.79556,329.08255,34545.01648
3.97,-0.000052,-0.000044,0.000126,-1.297982,-0.095343,9.787452,17261.47686,-53.623143,34321.46678
3.98,-0.000159,-0.00001,0.000007,-1.304896,-0.023599,9.814127,17331.81722,-75.558696,34759.15894
3.99,-0.000072,-0.000181,-0.000024,-1.215387,0.019061,9.787446,16909.22795,-176.172106,34527.02977
4,-0.000041,0.000049,0.00014,-1.212509,0.056873,9.799301,17337.78313,-95.137585,34999.31382
4.01,-0.000046,-0.000045,-0.000019,-1.193437,-0.122013,9.752135,17095.45908,311.565304,34277.40872
4.02,-0.000004,-0.00005,0.000106,-1.125105,-0.043525,9.753382,17025.43257,186.090283,34802.52371
4.03,0.000113,-0.000032,-0.000077,-1.115548,-0.061548,9.855966,17020.01472,448.942951,34369.86696
4.04,-0.000115,-0.000156,-0.000051,-1.152179,-0.031875,9.704838,17148.63664,303.253964,34751.49535
4.05,0.000074,-0.000009,-0.000079,-1.064448,-0.091117,9.745395,17161.34787,231.802855,34435.6024
4.06,0.000018,0.000081,0.000022,-1.073874,-0.062613,9.83177,17272.87027,-256.749024,34377.86245
4.07,-0.000098,-0.000058,0.000078,-1.097005,-0.014454,9.75383,17299.6013,188.713807,34526.11076
4.08,0.000016,0.000074,0.000159,-1.109689,0.012698,9.757589,16888.80277,-28.085903,34439.80505
4.09,0.000064,0.00009,0.000111,-1.026555,0.010898,9.833363,17395.13341,477.220122,34397.71948
4.1,-0.000173,-0.00004,0.000081,-1.027135,0.026982,9.825332,17169.8972,95.30049,34676.85892
4.11,-0.000073,0.000051,0.000022,-0.977765,0.017739,9.822433,17167.12459,185.404823,34136.32356
4.12,-0.00012,0.000097,0.000112,-1.04426,-0.08691,9.808903,16995.26143,-111.083808,34488.18608
4.13,-0.00002,0.000052,0.000146,-0.930265,-0.047321,9.727308,16844.52692,-95.816566,34477.66903
4.14,-0.00001,-0.000243,-0.000005,-0.984104,0.01682,9.848851,17185.57555,72.659421,34349.24126
4.15,-0.000079,-0.000115,0.000071,-0.951397,-0.05967,9.803268,16853.24693,-308.173281,34445.70622
4.16,0.000065,-0.000071,-0.000045,-0.879629,-0.003755,9.856632,16970.74444,-104.145219,34699.52807
4.17,0.000138,-0.000068,-0.000054,-0.916177,0.04222,9.887755,17119.35943,170.240093,34614.36868
4.18,-0.000019,0.000008,-0.000008,-0.917912,-0.04432,9.838638,17169.08274,195.811314,34755.19508
4.19,0.00003,-0.000071,-0.000027,-0.690054,0.024124,9.80502,17579.69869,1.800917,34461.39328
4.2,-0.000024,0.000039,-0.000002,-0.756671,-0.006703,9.725901,16747.25892,204.789788,34894.68514
4.21,-0.000011,-0.000037,0.0003,-0.845402,0.06604,9.722656,17100.61093,-54.970999,34380.68615
4.22,-0.000101,0.000092,0.000049,-0.844569,0.039711,9.813747,17089.65467,-476.150078,34706.18244
4.23,-0.000051,0.000034,0.000132,-0.689049,-0.053788,9.769792,16933.05738,104.035867,34899.09331
4.24,0.000071,0,0.000001,-0.741658,-0.062606,9.794734,16753.28336,-67.306276,34370.60138
4.25,-0.000086,0.000016,0.000104,-0.707725,0.042022,9.802019,16891.20054,185.825294,34734.08678
4.26,0.000083,0.000008,0.000146,-0.693652,0.023556,9.861479,17200.52096,100.473861,34481.81657
4.27,0.000093,-0.000014,-0.000076,-0.596186,0.012732,9.787433,17130.64236,165.356502,34724.31653
4.28,-0.000142,-0.000154,0.000193,-0.645436,-0.066165,9.809742,17016.59064,95.051893,34434.70403
4.29,-0.000113,0.000079,0.000105,-0.596784,0.080961,9.817202,16807.5732,376.539559,34568.93276
4.3,0.00011,0.000059,0.000045,-0.531801,0.064087,9.713276,17086.46066,-134.902556,34580.96883
4.31,-0.000057,-0.000021,0.000069,-0.574301,-0.012814,9.812337,16989.74652,147.904702,34843.24485
4.32,-0.000086,-0.000032,0.000194,-0.571572,0.041692,9.851442,16988.22154,-152.918899,34547.57371
4.33,-0.000188,-0.000006,-0.000026,-0.462731,0.032854,9.751668,17116.19289,-73.26891,34283.78141
4.34,-0.000023,0.000045,0.000049,-0.403649,-0.031515,9.712378,17150.54894,27.248862,34545.64955
4.35,0.000028,-0.000167,0.00015,-0.426356,0.02001,9.772306,16970.61887,10.075842,34517.60828
4.36,-0.000092,0.000026,0.00007,-0.487179,-0.05838,9.798793,16922.0518,24.811872,34517.42563
4.37,-0.000265,-0.000095,0.000073,-0.503018,0.0501,9.85621,17157.02505,-37.085314,34645.17658
4.38,0.000096,-0.000004,0.000076,-0.357276,0.051673,9.798145,16787.54556,0.091816,34245.73956
4.39,-0.000163,0.000096,0.000211,-0.376512,0.030434,9.834282,17395.24081,-8.888103,34652.20511
4.4,-0.000037,-0.000048,-0.000088,-0.33761,-0.071394,9.757327,17030.37203,52.414885,34599.38015
4.41,0.000038,0.000207,0.000116,-0.204486,-0.016261,9.94643,17024.86417,-293.11679,34392.50502
4.42,0.000071,0.000019,-0.000032,-0.266736,0.029048,9.822358,17137.99665,126.522864,34476.14174
4.43,0.000077,-0.000136,0.000035,-0.216229,0.040559,9.76358,16942.86358,-15.03801,34433.35994
4.44,-0.000015,0.000048,0.00009,-0.178879,-0.059643,9.697435,17172.49659,-391.57725,34316.49738
4.45,-0.000006,-0.000095,-0.000059,-0.143615,-0.058225,9.741368,17254.7434,31.56009,35002.04341
4.46,-0.000034,-0.000091,-0.000061,-0.088933,-0.009238,9.82557,16884.09205,245.99825,34602.58449
4.47,-0.00015,-0.000071,-0.000108,-0.002493,0.007883,9.828941,17414.21581,300.458917,34370.82266
4.48,-0.000157,-0.000171,0.00007,-0.118991,0.040699,9.848897,16949.39034,-91.949255,35031.82184
4.49,-0.000004,0.000146,-0.000077,-0.082666,0.031687,9.822327,17211.15938,-219.3866,34222.0934
4.5,-0.000099,0.000051,0.000035,-0.011709,0.003237,9.927297,17179.1818,62.721142,34471.46337
4.51,-0.000068,0.00012,0.000024,-0.004014,-0.017645,9.811516,17141.37997,-320.676333,34586.32242
4.52,-0.00014,-0.000144,0.000083,0.048482,-0.092069,9.838799,17161.10155,83.959914,34430.40342
4.53,-0.000013,-0.000148,-0.000032,0.132709,0.085467,9.778317,17126.26313,-74.429822,34110.62633
4.54,0.000007,0.000022,-0.000003,0.052926,0.031782,9.755183,16627.06795,166.526847,34350.48973
4.55,0.000015,0.000021,-0.000102,0.144867,-0.021122,9.81597,17222.31242,-162.057364,34655.04721
4.56,-0.000067,0.000008,0.000004,0.151751,0.033997,9.76055,17355.54396,452.831971,34511.94714
4.57,-0.000226,-0.000053,0.000119,0.322091,0.038065,9.775259,17417.80636,91.962631,33937.77575
4.58,0.000098,-0.00022,0.000282,0.183741,-0.010247,9.783085,16608.39148,117.180263,34801.29223
4.59,-0.000138,0.000055,0.000161,0.219468,0.068883,9.85513,17038.33173,-9.02074,34417.25397
4.6,0.000046,-0.000016,-0.000048,0.235319,0.027132,9.807324,16936.75288,231.215072,34516.23476
4.61,0.000015,-0.000091,-0.000167,0.356531,-0.033828,9.913127,16965.87264,115.476339,34431.75036
4.62,0.000207,0.000033,0.000212,0.350348,0.098981,9.783051,17145.56448,-81.63298,34625.96497
4.63,-0.000119,0.000099,0.000192,0.442188,-0.00609,9.890044,17041.51551,-332.697281,34749.53403
4.64,0.000096,-0.000031,-0.000051,0.393819,-0.053959,9.753046,17243.5212,15.33376,34459.06799
4.65,-0.000055,-0.000221,-0.000095,0.39908,0.029604,9.82557,17329.28906,-174.562669,34626.31892
4.66,-0.000031,-0.000115,0.000039,0.464533,0.052503,9.888759,17188.85752,125.596381,34516.64895
4.67,-0.000049,0.00014,0.000167,0.435926,0.049717,9.922588,17011.00408,371.629775,34394.44617
4.68,-0.000043,0.000077,-0.000014,0.482603,-0.028789,9.827185,16735.49414,-291.573187,34557.0837
4.69,-0.000069,0.000051,-0.000055,0.552101,-0.027315,9.803464,16924.25252,149.406103,34765.41964
4.7,-0.000064,-0.000144,0.000064,0.647959,0.04536,9.766662,16726.95155,-349.202072,34492.09484
4.71,0.000103,-0.000094,0.000073,0.50873,-0.055675,9.81606,17114.50196,-250.537166,34448.60313
4.72,-0.000118,-0.000129,-0.000054,0.581211,-0.04242,9.843128,16714.46343,119.635718,34812.945
4.73,0.000088,0.000177,0.000096,0.632359,-0.019427,9.817837,17119.37602,74.130717,34667.56355
4.74,-0.000102,0.000033,0.000024,0.744857,0.015045,9.841631,17322.30918,207.716684,34690.17793
4.75,0.00003,-0.000003,0.000078,0.701936,0.077178,9.745821,17260.10106,-249.171674,34661.96829
4.76,0.000014,-0.000079,0.000018,0.666957,-0.025678,9.908481,16952.26177,105.312367,34576.50631
4.77,-0.00019,-0.000067,-0.000071,0.825093,-0.055167,9.784291,17110.45676,127.457091,34611.63196
4.78,-0.000052,-0.000112,0.000062,0.799954,0.003272,9.851582,17038.6236,383.200499,34593.06478
4.79,0,-0.000153,-0.000017,0.772127,-0.082944,9.838153,17194.6766,-31.88075,34458.53488
4.8,-0.000122,0.000036,0.000203,0.883076,-0.076899,9.713481,16951.42296,32.562504,34571.09203
4.81,0.000035,-0.000059,0.000181,0.821432,-0.093454,9.828797,17221.73155,-66.394228,34806.9966
4.82,-0.000172,0.000102,-0.000004,0.809297,0.036973,9.790203,17281.12213,-445.532365,34280.02372
4.83,-0.000282,0.000203,0.000191,0.896584,0.033015,9.797211,17002.20374,29.188991,34656.61247
4.84,-0.000129,-0.000014,0.000035,0.861611,0.045699,9.733898,17161.25065,-51.759581,34875.78676
4.85,-0.000031,-0.000158,-0.000006,1.004607,-0.030457,9.781041,16838.91549,-83.90082,34422.24444
4.86,0.000001,-0.000009,0.000158,0.975548,0.020859,9.832733,17110.49277,70.859541,34558.56596
4.87,-0.000032,0.000176,-0.000009,0.90355,-0.044031,9.824543,17172.88843,-0.075975,34795.9553
4.88,-0.000017,-0.000196,-0.000056,1.016186,-0.004609,9.872137,16976.8656,-97.105107,34657.49412
4.89,0.000076,-0.000111,0.0001,1.009033,0.047062,9.861707,17151.50585,83.275721,34555.43847
4.9,-0.000045,-0.00012,0.000023,1.055053,-0.009574,9.84447,16826.72484,60.106826,34412.77549
4.91,-0.000084,-0.000071,0.000119,1.079442,0.031075,9.764312,17222.30262,68.48612,34568.44695
4.92,0.000017,-0.000079,-0.000026,1.099295,0.079761,9.793472,16998.92118,185.469027,34544.9894
4.93,-0.000015,-0.000037,0.000143,1.101355,-0.011702,9.851646,16809.31254,190.228124,34915.50828
4.94,0.000192,0.000045,0.000051,1.009515,0.079968,9.833246,17265.52912,69.760447,34403.94035
4.95,-0.000054,-0.000103,-0.000026,1.1186,0.013976,9.86397,17027.1047,147.381582,34720.65383
4.96,-0.000127,-0.000063,0.000016,1.165395,0.033836,9.867773,17109.62359,201.037266,34912.68126
4.97,0.000025,-0.000064,0.000036,1.171881,0.037435,9.881419,17104.18698,136.162608,34665.07452
4.98,-0.000146,0.000115,0.000098,1.207451,-0.030366,9.846468,17216.88202,258.036734,34447.93737
4.99,0.000117,0.000041,0.000184,1.296428,-0.01525,9.830653,16889.06573,-77.590147,34449.14728
5,-0.000061,0.000034,0.00029,1.231195,0.044691,9.787698,16960.69584,148.44814,34728.41982
5.01,-0.000146,0.000074,0.000202,1.22327,0.097972,9.842617,16917.65008,-419.598585,34181.40631
5.02,-0.000003,0.000038,0.000165,1.20737,0.040004,9.811333,17065.63382,-21.44447,34334.33801
5.03,-0.000098,0.000008,-0.000024,1.32789,-0.079299,9.813205,17093.09432,176.552163,34554.10648
5.04,-0.0001,-0.000084,0.000041,1.312969,-0.062187,9.771206,17187.98595,-383.289149,34648.15202
5.05,-0.000026,0.000012,-0.000073,1.300022,0.002705,9.79326,16969.81007,18.611896,34253.81968
5.06,0.000137,0.000075,0.000119,1.303264,-0.068091,9.766654,16935.17023,-169.572462,34352.70318
5.07,-0.000071,-0.000037,0.000103,1.384984,-0.031146,9.829977,17103.49586,-47.564678,34526.89677
5.08,-0.000003,-0.000179,0.00012,1.306961,0.043527,9.824643,17297.81005,90.263085,34622.05738
5.09,0.000221,-0.000194,0.000143,1.339541,0.058656,9.82436,17204.61946,35.80406,34760.298
5.1,-0.000006,-0.000039,0.000176,1.24454,-0.031816,9.879011,17181.2502,-68.819467,34504.88641
5.11,-0.000145,-0.000014,0.000185,1.39018,-0.010542,9.72961,17206.67531,-142.576773,34555.94154
5.12,-0.000057,-0.000066,0.000064,1.310412,0.104005,9.867689,17079.55382,-42.106821,34529.99004
5.13,-0.000079,0.00011,-0.000028,1.413815,-0.078884,9.741206,17168.51471,199.716967,34897.31824
5.14,0.000039,-0.000141,0.000114,1.331077,-0.066187,9.813861,17170.86699,135.282017,34733.33021
5.15,-0.000049,-0.00026,0.000053,1.312581,0.02432,9.79727,16786.72067,-234.294772,34699.98388
5.16,-0.000135,-0.000069,0.000192,1.344669,0.033117,9.83043,17162.05944,-91.024288,34694.17582
5.17,-0.00014,-0.000124,0.000183,1.383997,-0.017215,9.805777,16955.15525,-216.200966,34621.26993
5.18,-0.000029,0.00011,0.000083,1.286838,-0.096064,9.774761,17156.17928,133.20081,35078.671
5.19,-0.000119,-0.000035,0.000164,1.392857,0.087859,9.827797,17000.18879,163.141051,34447.72059
5.2,0.000045,-0.000029,0.000058,1.340538,-0.023264,9.745723,17064.04035,1.323127,34851.23066
5.21,-0.00005,-0.000081,0.000227,1.389925,-0.003751,9.806262,17042.22346,-315.42448,34017.99159
5.22,-0.000039,-0.00013,0.000011,1.407561,0.052039,9.841865,17328.71457,25.380026,34767.57208
5.23,0.000026,0.000029,0.000041,1.338704,0.042312,9.7581,17024.91686,-218.288048,34400.55416
5.24,-0.000099,-0.000027,-0.000097,1.4155,0.005398,9.891034,17299.06113,-156.649486,34657.17248
5.25,-0.000156,0.000043,0.000011,1.39199,-0.004015,9.794619,17296.53963,-326.9079,34822.01322
5.26,-0.000006,0.000081,0.000112,1.439135,0.016075,9.795082,17140.42896,52.390987,34564.35827
5.27,-0.000038,0.000162,0.000114,1.436949,0.104619,9.888457,17269.15656,-75.774977,34729.44877
5.28,-0.000071,0.000037,0.00009,1.468341,-0.025457,9.803818,17124.38425,102.430628,34462.99863
5.29,-0.000116,-0.000022,0.000039,1.400318,-0.082943,9.89321,17328.16313,135.267709,34436.91786
5.3,-0.000216,-0.000044,0.000028,1.318802,0.020775,9.747652,17099.73785,-45.00172,34638.25559
5.31,-0.000079,-0.000176,0.000022,1.392498,0.041785,9.834227,17241.28961,-332.301694,34649.08887
5.32,-0.000043,-0.00002,-0.000048,1.340073,-0.030877,9.854268,17286.79105,94.950892,34542.21236
5.33,0.000017,-0.000138,0.000034,1.374688,0.006894,9.854715,17233.67075,-169.134124,34453.97007
5.34,0.000078,-0.000091,0.000008,1.248996,0.013757,9.870729,16960.37417,-202.120375,34616.61775
5.35,0.000057,-0.000063,0.000027,1.454717,0.03495,9.772585,17139.10162,79.857372,34720.67969
5.36,-0.00002,0.000065,-0.000144,1.408183,0.09341,9.777314,17008.6777,10.947257,34330.37814
5.37,-0.000114,-0.000119,-0.000044,1.318214,-0.006082,9.788496,16897.2027,-266.119516,34734.66006
5.38,-0.000116,-0.000104,0.000081,1.245833,-0.114982,9.744343,17146.57519,-193.006986,34472.40633
5.39,-0.000119,-0.000018,0.00009,1.306912,0.022618,9.782754,16872.54763,-378.658272,34736.9268
5.4,-0.000105,-0.000017,0.0002,1.337891,0.068455,9.955812,17149.48897,294.077165,34535.03882
5.41,-0.000011,-0.000086,0.000048,1.362884,-0.046758,9.857534,17063.26686,-113.72048,34415.90526
5.42,-0.000121,-0.000005,0.000131,1.30977,0.018053,9.855989,16988.69797,-151.746762,34484.11986
5.43,-0.000113,-0.000047,0.000153,1.337474,-0.063304,9.752574,17129.11173,-104.343005,34889.90023
5.44,-0.000084,-0.000012,-0.000038,1.301448,0.035763,9.912054,17019.65986,215.987386,34883.13284
5.45,-0.000112,-0.000074,0.000244,1.306203,-0.016827,9.784631,16997.8683,243.997447,34659.25813
5.46,-0.000075,-0.000075,0.000004,1.229512,-0.062676,9.744367,16891.2245,-66.126603,34009.56025
5.47,-0.000054,0.000029,0.00007,1.224469,0.005724,9.770639,16949.17957,64.058484,34426.64949
5.48,0.00014,-0.00001,0.00018,1.238992,-0.012859,9.79711,17070.8936,-59.44863,34475.53873
5.49,-0.000015,0.000024,-0.000072,1.203089,0.015061,9.809144,17056.04286,-77.984441,34487.3902
5.5,-0.000051,-0.000035,0.000032,1.08009,0.013869,9.813457,17201.67283,409.056721,34434.58538
5.51,-0.000227,0.000048,0.00002,1.165218,0.009156,9.774174,17084.49587,-63.273307,34447.68529
5.52,-0.000078,-0.000051,0.000034,1.185703,-0.042112,9.841651,17153.6218,26.343866,34814.97022
5.53,-0.000004,-0.00014,-0.000028,1.180843,-0.070335,9.773896,17296.73696,-101.322642,34274.22842
5.54,-0.000014,-0.000016,0.000021,1.181745,0.020671,9.815002,17140.5665,165.842529,34675.70365
5.55,-0.00009,-0.000102,0.000049,1.074768,-0.032627,9.81614,17105.38922,-8.138001,34545.2728
5.56,0.000064,-0.000121,0.000187,1.127375,-0.000066,9.767388,17038.75939,33.682738,34649.57172
5.57,0.000034,-0.000068,0.000122,1.083695,-0.023594,9.751124,17019.46137,-242.076421,34620.51336
5.58,-0.000167,-0.00018,-0.000059,1.022623,-0.039047,9.734445,16955.34299,42.64155,34474.40948
5.59,-0.000075,-0.000057,0.000009,1.080534,0.038199,9.851353,16760.54158,-41.571146,34543.37294
5.6,-0.000031,-0.000215,0.000097,1.000019,-0.036337,9.820058,17227.08494,107.735714,34613.27525
5.61,-0.000163,-0.000086,0.000018,0.995385,-0.014862,9.79253,17141.84328,228.04548,34371.34148
5.62,-0.00014,-0.000148,-0.000034,0.919245,0.062403,9.737564,17397.53741,305.10076,34601.36327
5.63,-0.00004,0.000023,0.000103,0.900243,0.039659,9.754118,16948.53812,276.194127,34504.32145
5.64,-0.000126,-0.000098,-0.000027,1.008419,0.016944,9.825042,17129.02686,7.328609,34611.36228
5.65,0,-0.000206,0.000162,0.915888,-0.068892,9.749654,17016.68009,103.553951,34602.59292
5.66,-0.000082,-0.000097,0.000083,0.917505,-0.005129,9.748606,17032.58444,146.165493,34654.3511
5.67,0.000051,0.000001,0.000145,0.834433,-0.042211,9.804481,17012.98126,-49.265346,34684.20128
5.68,-0.000028,0.000079,0.000162,0.88877,0.044111,9.789378,16822.25191,57.554226,34592.97285
5.69,-0.000048,0.000097,0.000068,0.914125,0.035085,9.879477,16844.58808,-75.273262,34836.94101
5.7,-0.000032,-0.000109,0.000028,0.778093,0.028289,9.860466,17224.40636,-163.892431,34516.96667
5.71,0.000028,-0.000143,0.00011,0.710678,0.044988,9.8276,17023.21395,-112.749384,34425.04337
5.72,-0.000009,-0.000004,-0.000139,0.817465,0.008442,9.863242,17071.70874,-63.48163,34857.17744
5.73,-0.000048,0.000028,-0.000013,0.727689,-0.025247,9.842443,17434.25862,51.059917,34526.60005
5.74,-0.000032,-0.000236,0.000112,0.758515,-0.065277,9.865892,16827.26377,-112.645848,34440.69778
5.75,-0.000097,0.000047,-0.000107,0.755305,0.050019,9.772145,17130.55505,342.106537,34485.16086
5.76,0.000021,-0.000049,0.000124,0.733982,0.025192,9.852507,17370.11939,52.130078,34628.00828
5.77,-0.00012,-0.000083,0.000249,0.644441,-0.020778,9.77331,17086.32873,-461.654298,34416.11757
5.78,-0.000112,-0.00009,0.000029,0.591202,0.043623,9.770073,17044.23807,108.309439,34391.07985
5.79,-0.000129,0.000075,0.000204,0.564716,0.016027,9.794751,17020.69159,-204.574004,34509.13639
5.8,-0.000101,-0.000179,0.000156,0.468559,-0.03175,9.789966,16947.36785,153.495222,34398.45921
5.81,0.000057,0.000043,0.000155,0.619179,0.032353,9.759092,16905.51007,-14.000584,34772.11828
5.82,-0.000115,-0.000043,-0.000067,0.460689,-0.022023,9.818453,17090.9035,-7.868461,34676.57685
5.83,-0.000163,0.000057,-0.000005,0.448975,0.02114,9.739399,17096.47198,151.164148,34703.77017
5.84,0.000159,-0.000022,-0.000002,0.475173,0.057715,9.678711,17096.36784,-304.755921,34617.24255
5.85,0.00003,0.000129,0.000096,0.4301,0.01231,9.829225,17210.06227,219.102511,34424.7638
5.86,-0.000146,0.000004,0.000174,0.408447,-0.003168,9.82116,16927.34043,53.148885,34553.57835
5.87,-0.000082,-0.000096,0.000142,0.380816,0.004407,9.883719,17112.1217,-97.307588,34547.14742
5.88,-0.000027,-0.000125,0.00002,0.396884,0.044744,9.776838,17076.41281,-436.018182,34754.23823
5.89,-0.000105,-0.000003,0.000063,0.295344,0.051178,9.756704,16996.30382,-330.245795,34243.57154
5.9,0.000061,0.000033,-0.000083,0.339639,-0.065144,9.910292,17069.21769,-311.648475,34475.55178
5.91,-0.000004,0.00005,0.000093,0.32167,-0.026506,9.785118,16870.53177,-81.072166,34451.77327
5.92,0.00005,-0.000077,-0.000029,0.134114,-0.002384,9.865,17414.79048,65.213182,34797.17148
5.93,0.000042,-0.000122,-0.000135,0.233478,-0.012562,9.906472,16831.59817,-53.296583,34345.25752
5.94,0.00005,-0.000092,0.000027,0.20177,0.019959,9.793081,17182.11758,280.440278,34564.29033
5.95,-0.000161,-0.000144,-0.000047,0.174139,0.126681,9.829215,16757.75079,-37.849883,34741.61561
5.96,-0.000071,0.000004,-0.000147,0.036259,0.01057,9.899947,17359.34962,-76.955115,34536.25719
5.97,0.000026,-0.000132,-0.000039,0.145265,-0.024907,9.824327,16872.61453,-327.562672,34463.16501
5.98,0.00002,-0.000035,-0.00008,-0.012809,0.03094,9.765009,17314.88513,-150.814182,34636.6591
5.99,0.000122,-0.000104,0.000075,0.003561,-0.027435,9.772833,17121.30953,-94.84893,34411.36999
6,-0.000022,0.000094,0.000014,0.08198,0.071437,9.793542,16762.88806,-67.971457,34636.46653
6.01,0.000049,-0.000093,0.004458,0.004656,0.08147,9.793549,17211.59194,20.273716,34563.19202
6.02,-0.000106,-0.00006,0.013138,-0.021546,-0.040994,9.882842,16779.17365,-252.463359,34417.48593
6.03,-0.000012,-0.000019,0.021779,0.007934,0.000438,9.786999,16990.43122,-284.238697,34417.67532
6.04,-0.000008,-0.0001,0.030256,-0.044059,0.046078,9.769965,17017.60324,2.487226,34544.86677
6.05,-0.000143,0.00007,0.038902,-0.025273,-0.081369,9.754125,16821.24842,-198.438037,34720.43893
6.06,-0.000089,-0.000083,0.047413,-0.025051,-0.023842,9.733993,16890.08261,11.193409,34816.43732
6.07,-0.000038,-0.000114,0.056043,-0.029942,-0.006927,9.680343,17361.09372,-308.712574,34530.75496
6.08,-0.000218,-0.000066,0.064548,0.027821,-0.01371,9.742031,16985.70089,-203.689904,34703.50609
6.09,-0.000063,-0.000002,0.073059,-0.013672,0.020911,9.806665,17101.27482,174.38073,34303.47046
6.1,0.000012,-0.000044,0.081684,0.001514,0.000028,9.838323,16621.11585,-121.081936,34536.77892
6.11,-0.000159,-0.000132,0.090338,-0.066322,-0.029057,9.825355,17315.63973,-170.224654,34634.74114
6.12,-0.000124,-0.000023,0.098954,0.000687,-0.052017,9.793094,17303.15764,-604.450964,34512.44874
6.13,0.000051,0.000107,0.107381,-0.034438,0.000313,9.726526,16965.56631,-346.864736,34432.12564
6.14,-0.000134,0.00006,0.115967,-0.079202,-0.070536,9.800142,17027.5731,241.102367,34353.49688
6.15,0.000059,-0.000028,0.124564,0.118725,0.046674,9.865768,16990.96172,19.281528,35014.31951
6.16,0.000034,0.000034,0.133011,-0.00034,0.076142,9.823763,16815.34573,-86.55619,34408.3827
6.17,-0.000005,-0.000008,0.141479,0.002379,0.051607,9.747761,17366.87062,-80.042667,34610.92095
6.18,0.000047,-0.000073,0.150087,-0.106857,-0.058535,9.874542,17287.78594,-208.297021,34533.71198
6.19,-0.000049,0.000057,0.158388,0.042508,0.00815,9.794979,17158.50374,-572.566283,34537.39007
6.2,-0.000061,0.000149,0.166812,-0.009268,0.017838,9.764684,17274.77352,-815.835174,34206.19668
6.21,-0.000151,-0.000091,0.175236,0.036368,-0.048069,9.871528,17191.67704,-216.541697,34551.60272
6.22,0.000149,-0.000011,0.18375,-0.017335,-0.04575,9.792474,17188.28693,-400.069956,34798.82136
6.23,-0.000127,0.000002,0.192112,-0.045985,-0.007546,9.718872,16861.04935,-95.673459,34522.4568
6.24,0.000118,-0.000089,0.200471,-0.024951,0.002536,9.824924,16921.00225,-292.855856,34467.65806
6.25,-0.000013,-0.000118,0.208758,-0.020013,0.05754,9.724256,17410.29546,-545.966349,34307.53567
6.26,-0.000062,-0.000232,0.217132,-0.011772,-0.024735,9.805818,16679.6917,-460.816713,34971.48464
6.27,0.000008,-0.000067,0.225258,-0.013974,0.065863,9.805999,17216.68289,-544.197517,34090.55491
6.28,0.00009,-0.000005,0.233734,-0.046227,0.119595,9.808053,16803.24504,-494.28133,34442.7016
6.29,0.000084,-0.000074,0.241962,-0.009079,0.041718,9.777176,17059.51582,-624.424578,34658.74641
6.3,-0.00006,-0.000034,0.250102,-0.012231,0.040625,9.748594,16942.78853,-541.421705,34760.55645
6.31,-0.00004,0.000069,0.258312,-0.023313,0.044415,9.893461,17035.70211,-595.045757,34511.05358
6.32,-0.000053,-0.000053,0.266494,-0.005197,-0.006417,9.859013,16954.33622,-712.22113,34488.4546
6.33,-0.000118,-0.000073,0.274593,-0.073086,-0.035096,9.76751,16908.76622,-834.772316,34493.97617
6.34,-0.000089,-0.000039,0.282648,-0.101298,-0.142328,9.786292,17229.00239,-609.202721,34219.93663
6.35,0.000135,0.000087,0.290813,0.042872,0.031066,9.867602,16692.21146,-1047.15208,34755.70336
6.36,-0.000044,0.000162,0.298842,-0.134204,-0.008482,9.870996,16810.55024,-1175.595389,34166.87017
6.37,-0.000047,-0.000002,0.306849,-0.043596,-0.064721,9.823011,16882.06779,-1061.240257,34732.41446
6.38,0.000084,-0.00003,0.31498,-0.000697,0.029705,9.805826,17396.98003,-1046.802662,34627.64074
6.39,-0.000116,0.000032,0.322649,0.059195,0.032503,9.818646,17148.69406,-1082.393116,34630.97961
6.4,0.000119,-0.000058,0.330636,-0.019589,0.033171,9.773881,16712.66019,-1052.836734,34699.33508
6.41,0.000041,0.000081,0.338412,0.045496,0.054861,9.852349,16729.35601,-1413.086247,34593.43692
6.42,-0.00007,-0.00015,0.346352,-0.063375,0.020363,9.824381,17106.8836,-1168.563057,34839.89212
6.43,-0.000048,-0.000059,0.354073,0.041428,-0.076968,9.777091,17163.87367,-890.496856,34476.32203
6.44,-0.000073,-0.000094,0.361933,-0.004834,0.066968,9.777272,16840.49387,-1671.078522,34696.96073
6.45,0.000093,-0.000197,0.369592,0.042592,0.006181,9.900744,17274.98226,-1614.147999,34547.30652
6.46,-0.000076,0.000014,0.377193,0.014928,-0.07961,9.792908,16754.26645,-1221.077457,34589.72479
6.47,-0.000052,-0.000119,0.384969,0.01156,0.061011,9.838883,17190.80776,-1766.276831,34598.73316
6.48,-0.000031,-0.000043,0.392531,-0.01467,-0.062711,9.808149,17234.90126,-1607.298268,34245.83417
6.49,-0.000061,-0.000164,0.400098,-0.00681,0.064174,9.851945,16835.36836,-1791.133479,34655.80601
6.5,-0.000014,-0.000042,0.407636,-0.069373,-0.114218,9.786377,17050.7884,-1610.439705,34530.52446
6.51,0.000067,-0.000124,0.414941,0.012398,-0.048288,9.781305,16732.39312,-1664.132636,34629.41764
6.52,0.000096,0.000095,0.422358,0.057302,0.035252,9.722226,16663.6522,-1960.994081,34315.94386
6.53,-0.000142,-0.000084,0.429746,0.016218,0.007019,9.796759,17422.69703,-2052.882954,34558.55115
6.54,-0.000178,-0.000026,0.436997,0.026891,0.027919,9.928412,17145.77028,-2331.188488,34684.88708
6.55,-0.000145,0.000051,0.444321,0.010541,-0.03647,9.782304,16921.19891,-2075.502526,34274.39808
6.56,-0.000046,0.000026,0.451675,0.034499,0.093978,9.836519,17032.00775,-2523.510247,34568.28759
6.57,-0.000069,-0.000025,0.458706,0.025684,0.0125,9.785007,17002.08394,-2202.886713,34727.41374
6.58,0.000113,0.000028,0.465805,0.003098,-0.059915,9.843433,16594.9588,-2051.671407,34520.7571
6.59,-0.000039,0.000034,0.473016,0.022671,0.008431,9.764867,16924.79024,-2274.671151,34903.8307
6.6,0.00012,0.000091,0.479947,-0.013343,-0.028553,9.821863,16736.88903,-2545.299979,34593.32644
6.61,-0.000047,-0.000141,0.486984,-0.014509,0.017279,9.852604,17146.33232,-2558.454628,34985.48465
6.62,-0.000026,0.000207,0.493885,0.061711,-0.050561,9.790642,17017.88589,-2825.469671,34438.02383
6.63,-0.000222,-0.000087,0.500747,-0.053991,0.060781,9.765447,16826.89477,-2801.072475,34429.35261
6.64,-0.000149,-0.000104,0.507511,0.065725,-0.024926,9.857417,16890.79403,-2701.546024,34495.22851
6.65,-0.00001,-0.000043,0.514215,-0.026864,-0.011269,9.813214,17027.21744,-2833.889511,34635.28494
6.66,0.000029,-0.000076,0.520942,0.004114,-0.007453,9.839862,17096.70235,-2776.469372,34334.70735
6.67,-0.00016,-0.000097,0.527679,0.058378,0.041955,9.783609,16847.62106,-3034.702925,34345.09983
6.68,-0.000181,-0.000035,0.534263,-0.090937,0.0053,9.668253,16482.1288,-3258.403991,34372.19137
6.69,-0.000072,-0.000008,0.540623,0.032778,0.030232,9.747704,16719.55119,-3565.945865,34688.69977
6.7,0.000075,0.000067,0.547201,0.028341,-0.032572,9.869254,16518.5509,-3690.754207,34496.30159
6.71,-0.000193,-0.00012,0.553666,-0.037653,-0.040974,9.775211,16733.02174,-3717.60709,34625.22447
6.72,0.00011,-0.000003,0.56003,0.011546,-0.050977,9.917701,16471.48322,-3268.036717,34635.25472
6.73,-0.000092,-0.000045,0.566199,-0.018349,0.085641,9.793327,16771.38984,-3680.213841,34574.39435
6.74,-0.000003,-0.000162,0.572498,-0.015643,-0.034859,9.770085,16355.6097,-3734.325177,34686.22752
6.75,0.000076,-0.000129,0.578451,0.021335,0.05855,9.812568,16467.29206,-3854.825044,34339.10956
6.76,-0.000009,-0.000086,0.584452,-0.043804,0.010304,9.768615,16784.6998,-3976.834606,34860.81577
6.77,0.000031,-0.000015,0.590644,-0.131317,0.006021,9.721821,16756.20121,-4186.611837,34601.45068
6.78,0.000145,-0.000017,0.596581,-0.031091,0.00249,9.787666,16929.57567,-3923.862282,34463.9561
6.79,-0.000031,-0.000119,0.602476,-0.012966,0.075655,9.854125,16346.56412,-4399.883523,34389.44995
6.8,-0.000006,-0.000077,0.608333,0.074115,0.010323,9.818415,16416.10674,-3816.625349,34645.87075
6.81,0.000106,0.000046,0.614205,0.086378,-0.030715,9.823599,16776.41556,-4679.284396,34646.27789
6.82,0.000007,0.000014,0.619958,0.006427,0.01424,9.836538,16631.96734,-4925.509621,34418.43163
6.83,-0.000041,0.000133,0.625376,0.005758,0.039522,9.765951,16115.18078,-4966.456658,34389.10735
6.84,-0.000062,-0.000149,0.630988,0.024144,-0.051104,9.859916,16540.32201,-4609.202991,34455.59051
6.85,0.000006,0.000098,0.63645,0.047721,-0.010399,9.782288,16169.10617,-4606.111669,34550.7794
6.86,-0.000039,-0.00006,0.641863,-0.001654,0.026632,9.733235,16285.97759,-4657.416546,34509.63481
6.87,-0.000143,-0.000023,0.647126,-0.049433,0.045359,9.796449,16051.09113,-4910.316959,34454.20587
6.88,-0.00003,-0.000027,0.652499,-0.063205,-0.108994,9.785192,15973.73203,-5027.356231,34378.68727
6.89,-0.000128,-0.000149,0.657927,-0.086209,0.005433,9.802644,16116.48363,-5204.9542,34783.1838
6.9,-0.000157,0.000107,0.662951,0.088728,-0.06189,9.837447,15802.09029,-5361.702368,34739.7413
6.91,-0.000071,-0.00013,0.668052,-0.059365,-0.051359,9.796191,16419.54905,-5552.146175,34396.78913
6.92,0.000111,-0.00011,0.672924,-0.042371,0.087476,9.803542,16210.19553,-5940.202345,34824.3455
6.93,0.000052,0.000001,0.67804,-0.037905,0.111206,9.767323,15993.40218,-6035.181861,34614.09763
6.94,-0.000089,0.000019,0.682598,-0.019644,-0.011727,9.768046,16264.13761,-5752.833484,34319.75528
6.95,0.000143,-0.000092,0.68728,0.027759,0.056355,9.74301,16295.02455,-5890.572413,34554.60954
6.96,-0.00005,-0.000041,0.692331,-0.025424,-0.020201,9.7375,15935.79851,-5879.16685,34645.48359
6.97,-0.000069,-0.00003,0.696831,-0.066028,-0.020102,9.761516,15926.52659,-6159.709782,34596.00775
6.98,0.000099,-0.000034,0.701408,0.012997,0.037555,9.814183,15892.51867,-6318.086409,34590.43332
6.99,0.000006,-0.000055,0.705786,0.011579,-0.046984,9.775862,16104.92233,-6626.103802,34211.18424
7,-0.000037,-0.000109,0.710269,0.016469,0.025309,9.800678,15628.76096,-6458.74901,34470.51809
7.01,-0.00016,0.000074,0.714553,0.023883,-0.014644,9.74842,15737.24285,-6516.352055,34620.26788
7.02,-0.000048,-0.000095,0.718678,0.012453,-0.023101,9.722417,15777.7171,-6608.305587,34651.49438
7.03,0.000002,0.000036,0.722872,0.038061,0.015921,9.840008,15549.91531,-6958.529824,34527.47895
7.04,0.000047,-0.000077,0.726937,-0.025459,0.069094,9.827955,15380.11609,-7070.424206,34345.56859
7.05,-0.000176,0.000038,0.73092,0.044589,-0.034187,9.78973,15402.17765,-7443.979769,34277.8937
7.06,-0.000076,0.000073,0.734877,0.059329,-0.003894,9.805968,15724.03479,-7509.128144,34620.00498
7.07,-0.000285,-0.000025,0.73852,0.069327,0.053215,9.81593,15528.46917,-7145.269201,34470.14164
7.08,0.000054,0.000189,0.74235,0.089463,-0.074255,9.801776,15417.71379,-7482.50551,34591.30976
7.09,-0.000033,-0.000051,0.746093,-0.029073,0.068546,9.881014,15376.44407,-7396.78335,34538.96307
7.1,0.000017,0.000084,0.749561,-0.025492,0.004655,9.850285,15151.22075,-7820.895168,34338.8336
7.11,0.000098,-0.00011,0.753175,0.022829,0.010543,9.853168,15198.27238,-7676.356388,34474.06706
7.12,0.000062,0.000034,0.756489,0.091373,0.003699,9.752273,15233.99113,-7675.489184,34409.82177
7.13,-0.000101,-0.000069,0.759904,-0.007257,-0.003836,9.787265,15291.57789,-7977.527633,34368.85587
7.14,0.000061,-0.000141,0.763204,0.031594,0.033205,9.848959,14854.18435,-8086.867628,34528.94436
7.15,0.000014,0.00002,0.766374,0.020995,0.010647,9.756494,15079.5548,-8618.081407,34765.32741
7.16,0.000093,0.000014,0.769495,-0.01827,-0.043093,9.820958,15108.91532,-8585.244372,34416.25584
7.17,0.00001,0.000128,0.772256,-0.007507,-0.003738,9.830741,15199.71608,-8327.505635,34514.47611
7.18,0.000072,-0.000051,0.775315,-0.015875,0.04918,9.855627,14696.21816,-8592.055822,34696.82827
7.19,-0.000124,-0.000192,0.778139,-0.046888,0.060744,9.789493,14636.11096,-8620.883624,34436.61051
7.2,-0.000099,0.000014,0.780791,-0.036416,-0.016847,9.745038,14237.91107,-8801.935267,34443.37477
7.21,0.000085,-0.000005,0.783559,0.014382,0.055668,9.73331,14785.64909,-8883.288275,34678.99188
7.22,-0.000101,-0.000097,0.786058,0.018489,0.025957,9.837009,14236.19827,-8903.827177,34213.8336
7.23,-0.000087,-0.000028,0.78863,0.028866,0.018922,9.783408,14593.90799,-9126.723151,34733.84641
7.24,-0.000163,-0.000052,0.790971,0.040671,0.014054,9.843571,14642.32267,-9055.481405,34369.02132
7.25,-0.000025,0.000134,0.793419,0.013023,-0.014225,9.803432,14060.99892,-9338.205503,34599.97909
7.26,-0.000067,-0.00017,0.79547,0.027162,0.047685,9.714635,14257.61193,-9694.323193,34330.84614
7.27,-0.000187,0.000035,0.797669,-0.062693,-0.079529,9.780297,14123.91386,-9323.301063,34361.04796
7.28,-0.000034,-0.000083,0.799798,-0.033728,0.007566,9.791057,14110.17004,-9646.326211,34486.43694
7.29,0.000083,-0.000088,0.801727,0.061458,-0.031237,9.77169,13428.94122,-9735.975261,34156.86356
7.3,-0.00011,0.000048,0.803546,-0.041083,-0.016233,9.813153,13849.30731,-10251.81108,34394.74041
7.31,-0.000138,-0.00015,0.805303,-0.025027,-0.046008,9.740472,13979.97276,-10470.71175,34286.07702
7.32,0.000002,0.000196,0.807042,0.006649,-0.028193,9.758515,13572.92521,-10359.24259,34550.18963
7.33,0.000044,-0.000007,0.808646,-0.014995,0.013633,9.902667,13595.10403,-10266.73655,34547.40298
7.34,-0.000064,-0.000049,0.810207,0.075145,-0.044499,9.783834,13551.33367,-10081.82075,34350.3505
7.35,0.000129,-0.000195,0.811737,-0.095213,-0.095565,9.71728,13508.84073,-10537.58046,34688.63176
7.36,-0.000011,-0.000079,0.813064,0.041009,-0.009582,9.735197,12820.76324,-10786.42375,34620.55308
7.37,0.000037,-0.000015,0.814346,-0.034379,-0.026356,9.773492,13272.41426,-10493.36294,34228.03012
7.38,0.000021,-0.000206,0.815607,0.06728,-0.094293,9.783316,13651.99303,-10753.91214,34475.66565
7.39,0.000159,0.000057,0.816646,0.009164,0.020329,9.70135,12956.49368,-11139.08799,34415.27147
7.4,-0.000162,-0.000039,0.817477,0.0063,-0.062477,9.777381,13029.39843,-11228.12887,34620.70214
7.41,-0.000091,0.000056,0.818378,-0.078175,0.034144,9.953059,12836.51682,-11045.22915,34378.07624
7.42,-0.000051,-0.000195,0.819245,0.045673,-0.01669,9.721426,12863.89391,-11424.48259,34762.12162
7.43,-0.000032,-0.00009,0.819916,0.039004,0.054569,9.752601,12738.4362,-11317.4252,34880.37492
7.44,0.000125,-0.000134,0.820518,0.042423,-0.087785,9.744237,12694.67044,-11617.87619,34513.98123
7.45,-0.00011,0.000076,0.821334,0.004525,-0.068723,9.841079,12469.59216,-11446.39198,34906.39621
7.46,-0.00001,-0.000091,0.821564,0.065703,0.000751,9.828703,12808.86981,-11701.19774,34557.54076
7.47,0.000053,-0.000108,0.822089,0.074127,0.022639,9.867783,12588.6857,-11637.7389,34095.93563
7.48,0.000084,-0.000023,0.822289,0.066471,-0.051667,9.910069,12107.74363,-11970.17259,34416.30967
7.49,0.000026,0.000107,0.822321,0.054866,0.005962,9.84547,12188.61005,-11883.82777,34319.37839
7.5,0.000064,-0.000061,0.822436,0.014031,0.009958,9.758951,12242.32445,-12079.74144,34683.9267
7.51,-0.00003,-0.000047,0.822417,-0.020059,-0.016705,9.858391,12335.8911,-12272.78952,34182.63075
7.52,-0.000179,-0.000111,0.82254,0.022058,0.018707,9.80135,11785.16527,-12287.26327,34461.17118
7.53,0.000132,0.000028,0.822336,0.059467,-0.117123,9.763549,11732.2368,-12571.60247,34652.02809
7.54,-0.000085,-0.000035,0.821987,0.044702,-0.020206,9.8375,11950.44284,-12322.76286,34368.60449
7.55,-0.000134,-0.000115,0.82161,0.074956,0.037638,9.736878,11581.78671,-12481.11954,34359.03453
7.56,-0.000067,-0.000121,0.821185,-0.011258,-0.05524,9.82948,11450.63716,-12819.6225,34868.61268
7.57,-0.000062,0.00006,0.82061,0.048888,-0.011829,9.831358,11534.36707,-12713.7686,34163.26705
7.58,-0.000066,-0.000018,0.819964,-0.009952,0.091009,9.813339,11389.39144,-13068.56202,34732.77377
7.59,-0.000098,-0.000064,0.819324,0.010614,0.026555,9.857343,11392.04826,-12702.67618,34560.7495
7.6,0.000017,0.000084,0.8183,0.032754,-0.001599,9.809822,10871.9853,-12967.33569,34624.68151
7.61,-0.000074,-0.000065,0.817563,0.023994,0.027875,9.789426,10331.71944,-13258.936,34684.57697
7.62,-0.000079,-0.000073,0.816626,-0.027606,-0.011337,9.829309,10763.00778,-12954.65439,34570.14793
7.63,-0.000024,-0.00013,0.815595,-0.021344,-0.051443,9.791458,10826.12198,-13198.15897,34649.39517
7.64,0.000048,-0.000079,0.814382,-0.023401,0.028747,9.782938,10875.50803,-13437.46768,34363.93381
7.65,-0.000104,0.00007,0.813032,-0.01944,0.088979,9.828639,10233.95162,-13439.98154,34314.39094
7.66,-0.00011,-0.000061,0.811637,-0.043929,0.057085,9.790087,10190.72647,-13504.07389,34485.35777
7.67,-0.000023,-0.000013,0.810271,-0.0385,0.030792,9.740451,10251.79928,-13298.22294,34624.5933
7.68,-0.000088,-0.000348,0.808751,-0.003055,0.02674,9.842934,10073.83474,-13721.43205,34342.45764
7.69,-0.000205,-0.000007,0.807227,-0.024926,-0.023618,9.803513,10091.93679,-13699.32251,34827.92613
7.7,-0.000016,-0.000063,0.805411,0.057613,-0.08502,9.84645,10037.27418,-13855.13674,34617.72395
7.71,-0.000051,-0.000077,0.803585,0.014347,0.065035,9.754417,9889.936737,-14035.85341,34182.53679
7.72,-0.00012,0.000075,0.801755,0.054846,-0.040961,9.821845,9633.814454,-13954.83605,34669.45955
7.73,0.000044,-0.000051,0.799796,-0.01842,-0.116298,9.804878,9652.539955,-14153.15278,34445.88523
7.74,-0.000054,0.000012,0.797808,0.018848,0.041162,9.777789,9440.47274,-14445.24848,34944.70252
7.75,-0.000019,-0.000087,0.795526,-0.055098,0.03384,9.790769,9329.999489,-14242.27802,34637.31234
7.76,0.000105,-0.000053,0.793339,0.049923,0.067916,9.796715,9096.483555,-14550.47567,34419.25352
7.77,0.000088,0.000066,0.791095,-0.00775,-0.033903,9.711571,9161.504573,-14276.89596,34421.3373
7.78,-0.000074,0.000177,0.78868,0.00008,0.034915,9.858195,8941.760105,-14656.95525,34592.70025
7.79,0.000008,-0.000044,0.786033,-0.00056,0.08826,9.783016,8967.497397,-14405.60437,34786.78246
7.8,-0.000156,0.000007,0.783615,-0.000634,-0.025315,9.786979,8914.634163,-14675.18072,34449.98945
7.81,-0.00006,-0.000131,0.780793,-0.012633,-0.032166,9.78802,8757.725203,-14731.69092,34625.09925
7.82,-0.000068,-0.000156,0.778251,0.013968,0.005828,9.75839,8754.219775,-14887.04496,34664.81618
7.83,0.000061,0.000218,0.775416,0.024692,-0.038195,9.829714,8497.10893,-15114.62261,34720.17067
7.84,-0.000091,-0.000105,0.772121,0.00408,-0.090562,9.758867,8348.488131,-15022.25012,34672.40891
7.85,-0.000091,-0.000044,0.769505,0.045794,-0.029884,9.776925,8433.56534,-15153.10554,34512.66285
7.86,0.000014,0.000023,0.766352,-0.019952,0.006075,9.835493,7875.293664,-15081.72249,34589.54451
7.87,0.000018,0.000098,0.76307,-0.013276,0.08099,9.781066,8047.916571,-15091.20711,34833.631
7.88,-0.000079,-0.00015,0.76005,-0.021355,-0.00798,9.816154,8059.402666,-15084.55755,34605.86151
7.89,0.000074,0.000037,0.756467,0.070302,0.112499,9.792042,7788.545653,-15314.83965,34386.34958
7.9,-0.000024,-0.000049,0.753158,-0.007222,0.030973,9.802509,7642.25971,-15148.04915,34435.07329
7.91,-0.000056,0.000017,0.749613,0.041822,-0.049739,9.848887,7178.941053,-15194.96329,34502.63058
7.92,0.000035,-0.000008,0.746037,-0.103146,0.025877,9.840137,7584.582119,-15328.08207,34343.14697
7.93,-0.000049,-0.000067,0.742466,0.119348,-0.042629,9.841363,7128.817758,-15522.83245,34127.53662
7.94,-0.000063,-0.000003,0.738612,0.031753,-0.044216,9.82047,7603.981624,-15583.3829,34475.28025
7.95,-0.000169,0.00005,0.734725,-0.039617,-0.054912,9.735995,6845.455069,-15515.95665,34698.27294
7.96,0.00002,0.000008,0.730763,-0.009811,-0.049683,9.708802,7293.759108,-15679.39204,34846.8583
7.97,-0.000122,-0.000074,0.726845,0.014261,-0.081477,9.841116,6945.947246,-15903.79413,34782.87374
7.98,-0.000143,0.000036,0.722826,0.012086,-0.039113,9.731849,6657.677744,-15569.90687,34644.0983
7.99,-0.000006,-0.000066,0.718724,-0.043246,-0.064411,9.789499,6603.529334,-15803.33592,34696.08906
8,-0.000105,-0.000031,0.71452,-0.017373,0.118944,9.707067,6409.793826,-15957.6473,34788.36737
8.01,-0.000036,-0.000069,0.710068,-0.028222,0.027003,9.85708,6401.82248,-15516.50088,34282.15432
8.02,-0.000025,0.000001,0.705756,0.064731,-0.047111,9.846316,6304.486427,-15858.96709,34379.80334
8.03,-0.000107,0.000019,0.701534,-0.138721,-0.010697,9.848765,6471.797863,-15922.18865,34207.99946
8.04,-0.000066,0.000001,0.696812,0.034404,-0.06797,9.767409,6202.513119,-16237.62369,34579.78441
8.05,-0.000263,-0.000018,0.692102,-0.104174,-0.035984,9.740773,6072.545103,-15543.46987,34462.83459
8.06,0.000081,-0.000051,0.687405,0.013182,-0.036751,9.836337,5889.364712,-16142.44938,34434.27456
8.07,-0.000059,-0.000014,0.682658,-0.005498,-0.016314,9.892785,5897.44892,-15859.99495,34709.85113
8.08,-0.000044,-0.000147,0.677846,0.056463,-0.064236,9.874364,5160.339392,-15958.85102,34525.89889
8.09,0.000028,0.000143,0.673012,0.036835,0.064252,9.829188,5319.080459,-16319.69878,34135.53225
8.1,-0.000016,0.000075,0.66805,-0.087342,-0.018393,9.689203,5535.925635,-16222.05019,34581.90448
8.11,0.000106,0.000066,0.662889,-0.068155,-0.034045,9.868966,5175.825438,-16408.71613,34668.85275
8.12,-0.000017,-0.000013,0.65779,0.001809,0.010364,9.843133,5372.463807,-16276.34087,34527.5964
8.13,-0.000022,-0.000097,0.652373,-0.044233,0.053515,9.81795,5243.317625,-15939.90608,34613.18304
8.14,-0.000098,-0.000205,0.647284,-0.046996,-0.028166,9.795322,4999.787106,-16384.06386,34655.20553
8.15,-0.000039,-0.000175,0.641988,0.029287,0.06903,9.792134,4863.439366,-16312.68455,34666.47491
8.16,0.000036,-0.00002,0.636653,-0.011171,0.087416,9.962811,4683.517313,-16153.3411,34964.27757
8.17,0.000124,-0.000134,0.631108,0.087586,0.009091,9.789622,4568.859662,-16252.07126,34233.08037
8.18,-0.000001,0.000008,0.62554,0.032998,0.014523,9.768485,4752.78047,-16791.30514,34822.14923
8.19,-0.000102,-0.00008,0.619759,0.06599,0.123508,9.766016,4684.484822,-16804.85537,34451.17541
8.2,-0.000105,-0.000037,0.614008,-0.038828,-0.025088,9.745395,4022.11075,-16130.86445,34861.88116
8.21,-0.000131,0.000022,0.608366,0.039407,-0.070605,9.839696,4339.492689,-16741.83908,34597.9655
8.22,-0.000006,-0.000194,0.602474,0.019063,0.036235,9.734633,4233.703898,-16330.53943,34969.13505
8.23,-0.000088,-0.000026,0.596595,0.006866,0.013122,9.850455,4306.585174,-16366.14032,34566.17693
8.24,0.000042,-0.000034,0.590687,0.018112,-0.028774,9.863068,3964.743142,-16416.1608,34565.4599
8.25,-0.000038,0.000033,0.584618,0.067598,0.065982,9.770653,3825.287355,-16836.74738,34335.69816
8.26,0.000059,0.000011,0.578583,0.025617,-0.04503,9.798801,3675.640041,-16865.62516,34315.91554
8.27,-0.000036,0.000017,0.572504,0.036727,-0.070587,9.943559,3672.129671,-16884.76529,34579.23246
8.28,0.000043,0.000004,0.566276,0.059903,-0.037921,9.779251,3630.93351,-16645.92615,34301.92064
8.29,-0.000029,0.000081,0.559918,-0.003906,-0.007171,9.747704,3646.756876,-16941.48358,34447.63039
8.3,-0.000221,0.000088,0.55359,-0.006819,-0.076225,9.776802,3489.339183,-16897.9482,34993.66203
8.31,-0.000142,-0.000046,0.547103,0.087847,-0.003387,9.788112,3405.377093,-16712.67986,34796.49422
8.32,0.000144,0.000015,0.540583,0.077099,0.015434,9.837987,2854.818229,-16542.77808,34370.25195
8.33,0.000008,-0.000063,0.534367,-0.028349,0.053773,9.790966,2992.931678,-17187.30192,34750.27356
8.34,-0.000131,-0.000225,0.527628,0.042917,0.031437,9.892385,3051.300293,-17106.4928,34529.84922
8.35,-0.00007,-0.000065,0.520799,0.048834,-0.001061,9.754989,3206.696446,-16986.83863,34598.57561
8.36,-0.000002,0.000117,0.514126,-0.01506,-0.034285,9.882739,2695.881859,-16874.19253,34929.71241
8.37,0.000063,-0.000078,0.507747,-0.022181,-0.113343,9.826101,2807.180932,-16972.54132,34789.68412
8.38,-0.000001,-0.000045,0.500833,0.039996,-0.0455,9.842583,2376.665231,-16853.49386,34711.01334
8.39,0.000006,-0.00008,0.493939,-0.065529,0.011841,9.799266,2325.425978,-16754.23845,34990.23114
8.4,-0.000084,-0.000185,0.48714,0.015235,0.020661,9.773891,2859.254734,-17076.08613,34668.84678
8.41,-0.00007,-0.000082,0.480024,0.039657,-0.025008,9.81306,2371.116199,-16987.3463,34878.68422
8.42,-0.000176,-0.000147,0.47293,0.07003,-0.045858,9.810859,2430.817723,-16910.86051,34559.72762
8.43,-0.000085,-0.000022,0.465999,0.078953,0.062113,9.773468,2103.683981,-17175.37218,34497.90318
8.44,-0.000081,0.000014,0.458831,-0.03095,0.026928,9.774736,2287.569187,-16942.41307,34862.18513
8.45,-0.000134,-0.000009,0.451522,0.003383,-0.067977,9.838626,2296.87673,-17030.47362,34519.87127
8.46,0.000053,0.000011,0.444383,-0.079901,0.006346,9.84191,2464.344593,-16628.10472,34701.00199
8.47,-0.000156,-0.000019,0.437042,-0.033481,-0.078233,9.744038,1794.929768,-17108.23355,34485.3352
8.48,0.000022,-0.000039,0.429718,-0.095389,0.088607,9.711466,2022.613635,-16907.30647,34677.52088
8.49,0.000041,0.000034,0.42237,-0.064322,0.015979,9.809588,1488.01191,-16952.40784,34754.85786
8.5,0.000062,-0.000055,0.414982,0.050812,0.065118,9.829477,1900.397121,-16979.81627,34485.25337
8.51,-0.000029,-0.000094,0.407511,-0.003505,-0.028345,9.797996,1665.484032,-17191.00812,34540.35909
8.52,-0.000053,0.000105,0.400177,0.046774,0.030125,9.838259,1893.449132,-17001.37237,34843.00295
8.53,-0.000062,0.000112,0.392495,-0.083836,-0.038426,9.77288,1531.289728,-17100.92814,34779.4541
8.54,-0.000006,0.000048,0.384934,-0.027363,-0.053088,9.841073,1312.137864,-17092.03385,34288.75277
8.55,0.000171,-0.000007,0.377171,0.052529,0.090343,9.780956,1461.332576,-17199.60423,34403.64934
8.56,0.000074,-0.000065,0.369575,-0.005305,0.00439,9.806766,1254.526474,-17139.27575,34690.8951
8.57,-0.000301,0.000059,0.361959,-0.042095,0.039568,9.706313,1577.222719,-16352.38096,34615.49645
8.58,0.00003,0.000057,0.354281,-0.02427,-0.095287,9.838509,1503.940812,-17204.09653,34602.05898
8.59,-0.000043,0.000053,0.346275,-0.069748,-0.057982,9.806482,1174.047921,-17005.10009,34622.66749
8.6,-0.00007,0.000064,0.338543,-0.052297,0.012199,9.787793,1102.39987,-17125.62892,34419.3225
8.61,-0.000156,0.000003,0.330625,0.097701,-0.061166,9.76635,1011.422328,-16957.99201,34256.79039
8.62,-0.000111,0.000009,0.322701,0.028274,0.005692,9.829526,1374.291274,-16850.13499,34394.02482
8.63,-0.000176,-0.000126,0.314951,-0.01476,0.047213,9.824587,1203.019537,-16950.55604,34361.02924
8.64,-0.000172,-0.000009,0.306875,0.065887,-0.067966,9.819935,785.788513,-16978.56246,34406.99641
8.65,0.000016,-0.000136,0.298786,-0.011328,0.019839,9.76021,930.710137,-17140.00066,34838.34701
8.66,-0.000027,0.000041,0.290717,0.040389,-0.066831,9.851669,593.488447,-16779.27374,34427.62861
8.67,-0.000141,0.000059,0.282797,0.027272,-0.090252,9.827224,836.774795,-16669.67527,34348.15611
8.68,-0.000007,-0.000082,0.274633,-0.097151,0.028158,9.72705,509.606212,-17280.60636,34130.40356
8.69,-0.00003,0.000044,0.266355,-0.003629,-0.013605,9.725946,576.832505,-16593.05733,34423.56211
8.7,-0.000029,-0.000043,0.258204,-0.092947,0.024975,9.78318,599.905642,-16909.43392,34669.51213
8.71,-0.000021,-0.000026,0.250074,0.054376,-0.002438,9.945334,208.991115,-16974.80366,34886.47841
8.72,-0.000005,-0.000152,0.241886,0.008791,0.088439,9.825037,875.759228,-17396.90699,34608.86073
8.73,-0.000002,-0.000004,0.23374,0.004354,0.027249,9.769717,774.2393,-16904.42782,34433.56698
8.74,-0.000144,-0.00016,0.225396,-0.032138,0.083173,9.798159,562.246883,-16993.3259,34465.94404
8.75,0,0.000156,0.217133,-0.057309,0.026044,9.765906,491.228381,-17042.79552,34426.74135
8.76,-0.000116,0.000042,0.208686,0.004481,0.057552,9.872932,362.556152,-17196.54477,34853.79523
8.77,-0.000169,0.000199,0.200446,0.092075,0.0596,9.841265,447.326205,-16884.39913,34628.78432
8.78,0.000023,0.00002,0.192212,0.028459,0.016022,9.806711,554.701488,-17165.6863,34607.09774
8.79,-0.000015,0.000078,0.183579,0.115264,-0.00249,9.892794,99.08795,-17014.50675,34606.98637
8.8,-0.000161,0.000096,0.175392,-0.004429,0.062402,9.666392,-35.205019,-17427.95077,34346.29523
8.81,0.000005,-0.000009,0.166853,0.009374,-0.029567,9.888245,365.448883,-17230.45957,34465.78054
8.82,-0.000099,0.000106,0.158453,0.077349,-0.029362,9.805724,-164.783776,-16456.20811,34490.21772
8.83,0.000005,0.000004,0.150027,0.048756,0.017603,9.814878,-43.493683,-17382.48039,34768.62169
8.84,0.000005,0.000036,0.141357,0.051667,-0.062907,9.891214,159.259608,-17032.9905,34608.83205
8.85,0.000005,0.000162,0.132922,0.025614,-0.141438,9.764894,131.793965,-16962.22158,34987.87292
8.86,-0.000051,0.000049,0.124544,-0.000591,0.11749,9.810657,45.446944,-17073.71992,34681.63222
8.87,0.000015,-0.00017,0.115983,-0.071739,0.072364,9.831497,200.595055,-16817.44124,34617.51223
8.88,-0.000143,-0.000101,0.107454,0.003921,0.056956,9.79243,29.304221,-16924.79243,34258.82435
8.89,-0.000065,0.000042,0.099136,-0.001098,0.055015,9.83444,107.013982,-17015.58389,34921.43729
8.9,0.000028,0.000034,0.090228,0.053736,-0.013364,9.89706,-48.849931,-17115.15,34548.54907
8.91,-0.000096,-0.000122,0.081694,-0.066034,-0.063598,9.838081,-191.720172,-17112.88779,34488.14764
8.92,-0.000135,-0.000086,0.073148,-0.009967,0.015692,9.814999,-39.525174,-17035.67235,34897.79106
8.93,-0.000127,-0.000153,0.064465,-0.002032,-0.04746,9.828621,-47.089182,-16943.76109,34594.28718
8.94,0,-0.000023,0.056083,0.07158,-0.036098,9.90821,-36.068268,-16946.26552,34814.03424
8.95,0.000052,-0.000058,0.047456,0.084666,-0.036223,9.853953,167.19922,-17025.4476,34658.97417
8.96,-0.000165,0.000171,0.038901,-0.048736,-0.000022,9.75884,-71.87025,-16889.94626,34618.373
8.97,-0.000058,-0.00013,0.030225,-0.020568,-0.086695,9.805849,-28.364166,-17179.83074,34617.96397
8.98,-0.000203,-0.000097,0.021649,-0.046202,-0.038496,9.714943,-237.516414,-17170.99273,34284.9535
8.99,-0.000033,-0.000072,0.013055,0.008241,0.101537,9.795443,286.900729,-16774.40647,34638.10499
9,-0.00013,-0.000004,0.004317,-0.001335,-0.050738,9.790097,-187.290329,-17103.30546,34893.78104
9.01,-0.000113,0.000012,-0.004339,-0.036623,-0.071932,9.76893,150.074088,-16851.28438,35016.57874
9.02,0.000127,-0.00008,-0.012691,-0.019762,0.021657,9.796452,385.984178,-16861.8932,34635.0247
9.03,-0.000135,0.000024,-0.021581,0.019923,0.070624,9.859499,-45.672466,-17063.7304,34715.033
9.04,-0.000156,-0.000015,-0.030025,-0.015251,-0.082837,9.803586,240.993082,-16998.40222,34578.85602
9.05,-0.000151,0.000075,-0.038759,0.009647,0.055344,9.819873,154.829973,-16694.00437,34682.7022
9.06,-0.000028,0.000004,-0.047239,0.14479,-0.010847,9.845729,-242.514794,-17054.28797,34621.62505
9.07,-0.000196,0.000113,-0.055837,-0.040483,-0.045063,9.797653,268.800455,-17256.38614,34453.65937
9.08,-0.000077,-0.000118,-0.064624,0.015251,0.039529,9.654797,-143.477796,-16775.37189,34610.2247
9.09,-0.000158,0.000019,-0.073088,0.061219,0.079813,9.879994,225.053736,-16893.4265,34540.88778
9.1,-0.000138,-0.000075,-0.081497,0.047358,-0.001431,9.840096,-265.800058,-16728.37853,34220.77814
9.11,-0.000068,-0.00008,-0.090081,0.069224,-0.043995,9.84559,144.652514,-16971.16858,34522.14126
9.12,0.000001,-0.000025,-0.098808,0.029872,-0.002407,9.901676,179.830229,-17033.956,34617.60006
9.13,-0.000175,-0.000131,-0.107341,-0.030371,-0.044653,9.809479,223.287301,-17407.92071,34248.17072
9.14,-0.000059,0.000002,-0.115784,-0.027141,0.071281,9.728481,366.864496,-17306.73855,34608.80702
9.15,-0.00002,-0.000009,-0.124441,-0.061424,0.019688,9.84883,472.331596,-17011.17887,34335.4606
9.16,-0.000227,-0.000074,-0.132943,-0.05533,0.069023,9.715358,215.521932,-17084.12227,34537.59652
9.17,-0.000096,-0.000053,-0.14146,0.055357,-0.040708,9.787433,321.749017,-17194.81696,34626.94189
9.18,-0.000136,-0.000037,-0.149818,0.093644,0.000466,9.778697,495.534254,-17138.90834,34663.44704
9.19,-0.000097,0.000015,-0.158308,0.015487,0.097853,9.814181,556.244534,-16966.69948,34472.94873
9.2,-0.000128,-0.000025,-0.166567,-0.035241,0.01367,9.74869,-119.789785,-17329.14962,34643.92306
9.21,-0.000098,0.000073,-0.175036,-0.031181,-0.025274,9.842832,299.891474,-17058.09481,35221.13593
9.22,0.000091,-0.0001,-0.183385,-0.021344,0.02705,9.867933,489.011962,-17159.11293,34861.11241
9.23,-0.000029,-0.000051,-0.191967,0.081813,-0.081519,9.80761,686.299366,-17047.94269,34666.68168
9.24,0.000013,-0.000024,-0.200326,-0.054706,0.034842,9.822729,501.198592,-17088.15813,34384.86025
9.25,0.000073,-0.000092,-0.208744,0.002272,-0.023759,9.761926,708.408341,-16872.21348,34410.41587
9.26,0.00003,0.000033,-0.216877,-0.081796,0.050953,9.800138,579.850844,-17188.15058,34356.97782
9.27,-0.000133,0.000066,-0.225226,0.004257,0.018653,9.849587,652.314373,-17067.77627,34557.59929
9.28,0.000114,-0.000138,-0.233519,0.096795,-0.006274,9.842695,629.089939,-16950.70014,34688.82781
9.29,-0.000064,-0.000167,-0.241846,-0.078984,-0.017,9.774659,480.399281,-17038.89808,34699.60913
9.3,0.000059,-0.00007,-0.250065,-0.02871,0.060357,9.815419,425.939169,-17012.54117,34330.46171
9.31,0.000036,0.000058,-0.258107,0.005869,0.006498,9.79886,706.883676,-16910.46729,34617.98342
9.32,-0.000108,-0.000034,-0.266267,-0.008384,-0.029622,9.783288,756.969897,-17042.50095,34376.22402
9.33,-0.000097,-0.000094,-0.274418,-0.01878,-0.006506,9.716687,1024.444556,-17263.26006,34204.06412
9.34,0.000097,-0.000129,-0.28282,0.00589,0.00069,9.830668,769.112833,-17215.92059,34647.13112
9.35,-0.000166,-0.000117,-0.290678,-0.053024,-0.043966,9.849715,829.828258,-17257.01232,34347.13033
9.36,0.000014,-0.000041,-0.298768,-0.033357,0.026259,9.77633,720.402586,-17360.25728,34539.27264
9.37,-0.000026,-0.000113,-0.306719,-0.057211,-0.070015,9.779522,1305.664766,-17226.01698,34381.62148
9.38,-0.000095,0.000205,-0.314618,-0.021042,-0.058472,9.880291,993.127905,-17096.56714,34535.63706
9.39,-0.000112,-0.000116,-0.322667,0.003437,-0.041677,9.883934,1354.233103,-17069.82084,34545.97766
9.4,-0.000183,-0.000092,-0.330598,0.04334,-0.035211,9.758951,1154.587829,-17261.03464,34353.55057
9.41,0.000038,-0.000066,-0.338471,-0.006796,0.038495,9.740305,783.062171,-17171.72819,34399.91299
9.42,-0.000156,-0.000131,-0.346238,0.059512,-0.016589,9.851301,1253.337724,-16842.33487,34138.64906
9.43,-0.000058,0.00007,-0.354081,-0.00442,0.026654,9.841766,1474.365709,-16702.53023,34537.52228
9.44,0.000053,-0.000006,-0.36178,0.066576,-0.032641,9.903858,1411.89903,-16705.22421,34689.83968
9.45,-0.000215,-0.000141,-0.36943,-0.060396,0.018199,9.843701,1543.165301,-17182.43579,34445.40127
9.46,0.000083,-0.000011,-0.377102,0.004042,0.046689,9.730268,1672.523584,-16824.24408,34579.08467
9.47,-0.000075,-0.000061,-0.384859,0.000634,0.052238,9.810924,1852.396684,-16700.69656,34201.54685
9.48,0.000046,0.000001,-0.392412,-0.051699,0.010801,9.81977,1605.909522,-17092.60454,34627.36031
9.49,-0.000068,0.00002,-0.399911,-0.045907,0.068446,9.783946,2220.867683,-17149.18273,34411.07048
9.5,-0.000112,0.000121,-0.40742,-0.047724,0.008381,9.778287,1943.483862,-17162.32014,34488.51435
9.51,-0.000039,0.0001,-0.414812,-0.006363,0.014714,9.790018,2085.536979,-16695.35939,34879.60405
9.52,-0.000047,0.000018,-0.422408,0.032342,0.017712,9.87055,2163.623778,-17012.92846,34550.55568
9.53,-0.000095,-0.000226,-0.429575,-0.046071,0.006465,9.823337,2263.329949,-17037.54908,34701.81949
9.54,-0.000205,0.000031,-0.437074,0.017365,-0.100419,9.758136,1983.849614,-16752.5268,34703.82909
9.55,-0.000125,-0.000046,-0.444251,0.019383,0.031552,9.812331,1919.692312,-17021.04129,34467.4931
9.56,0.000014,0.000126,-0.451466,0.012369,0.06372,9.793411,2404.352982,-16983.36836,34141.68462
9.57,0.000037,-0.000081,-0.458609,-0.034268,0.077143,9.841027,2307.652372,-16877.52455,34321.45967
9.58,-0.000026,-0.000069,-0.465803,-0.004686,-0.03178,9.890046,2649.779227,-16683.85257,34289.74093
9.59,-0.000045,-0.000012,-0.472832,-0.010109,-0.03654,9.873489,2492.292375,-17371.10363,34383.93276
9.6,-0.000084,-0.000093,-0.479822,-0.069031,-0.003904,9.841844,2306.465934,-16922.34843,34586.79805
9.61,-0.000187,-0.000083,-0.48672,-0.010511,-0.021938,9.832457,2677.457179,-16979.32135,34450.97149
9.62,-0.000276,-0.000089,-0.493709,-0.056347,-0.007081,9.846415,2812.982921,-16967.32417,34844.01709
9.63,-0.000183,0.000198,-0.500856,-0.050457,0.071789,9.800605,2782.399665,-16877.11195,34680.02272
9.64,0.000086,0.000107,-0.507355,-0.000215,-0.019905,9.839349,2826.911422,-16637.96409,34722.1309
9.65,-0.000059,0.000002,-0.514263,-0.019874,0.014684,9.872886,3036.792165,-17043.16788,34534.53528
9.66,0.000031,-0.000126,-0.520902,0.065157,-0.071273,9.877279,3020.070078,-16746.82165,34600.12234
9.67,0.000047,-0.000126,-0.527546,-0.020716,0.018391,9.816014,3113.272506,-16802.24626,34533.09114
9.68,-0.000025,-0.000146,-0.533991,0.017262,-0.026106,9.839685,3082.048725,-16812.73584,34427.36384
9.69,-0.00001,-0.000161,-0.540617,0.053342,-0.024963,9.810069,3333.744785,-17002.09347,34909.42974
9.7,-0.000107,-0.000086,-0.547067,0.04347,0.056349,9.827295,3636.276924,-16668.42773,34454.92994
9.71,-0.000101,0.000055,-0.553535,0.016687,0.027232,9.794245,3617.509448,-16779.39782,34756.02801
9.72,0.000046,-0.000033,-0.559739,0.0199,-0.010206,9.793902,3632.729658,-16701.68364,34164.86681
9.73,-0.000087,-0.000073,-0.566193,-0.112298,-0.085025,9.828931,3550.338741,-16622.80013,34322.60993
9.74,0.000011,0.000053,-0.572123,0.039816,0.025227,9.815702,3760.057271,-16484.14115,34835.55061
9.75,0.000073,-0.000007,-0.57848,-0.011696,0.030897,9.790821,3796.510519,-17221.35524,34557.21756
9.76,-0.000006,-0.000031,-0.584424,0.002829,0.076764,9.742199,4107.06699,-16913.92079,34794.29717
9.77,0.000043,-0.000102,-0.590638,-0.026463,-0.009063,9.716027,4070.294096,-16277.37892,34539.85858
9.78,0.00008,-0.000002,-0.596559,-0.055574,0.055029,9.835542,4223.389805,-16762.53929,34692.73412
9.79,0.000064,-0.000063,-0.60246,-0.00403,0.067036,9.761652,4342.663047,-16666.65961,34671.63317
9.8,-0.00008,-0.0002,-0.608189,0.096837,-0.000546,9.780427,4301.63064,-16194.07429,34660.78727
9.81,-0.000145,-0.000078,-0.614093,0.056102,0.028354,9.819894,4491.926088,-16515.50922,34905.93323
9.82,0.000024,-0.000035,-0.619722,-0.003294,-0.086601,9.707561,4613.541815,-16358.51728,34356.1906
9.83,-0.000186,-0.000036,-0.62548,0.002364,0.049677,9.770687,4844.972267,-16401.75107,34409.3655
9.84,-0.000013,0.000003,-0.630912,0.006722,-0.074772,9.736021,4613.289754,-16189.25013,34556.38297
9.85,0.000139,0.000017,-0.636348,-0.000678,0.036425,9.845993,5026.035873,-16218.61181,34850.73094
9.86,-0.000027,-0.000046,-0.641736,0.061202,-0.037152,9.801213,5271.634042,-16414.71551,34506.87772
9.87,0.000057,-0.000142,-0.647078,0.040555,-0.048435,9.794227,4722.463081,-16294.30513,34607.38398
9.88,0.000005,0.000055,-0.652409,0.001743,0.000886,9.852445,4912.318871,-16265.1851,34556.00604
9.89,-0.000148,-0.000131,-0.657497,0.022685,-0.019958,9.694773,5308.357822,-16203.29105,34326.70224
9.9,-0.000017,-0.000152,-0.662761,0.040697,0.050696,9.834206,5433.729548,-15790.43445,34533.48427
9.91,-0.000071,-0.00019,-0.668054,0.019179,0.023498,9.868656,5437.783975,-16214.69876,34837.46277
9.92,-0.000179,-0.000005,-0.672847,-0.023552,-0.001717,9.759942,5381.661158,-15757.03278,34439.73933
9.93,-0.000061,-0.000004,-0.677706,-0.009274,-0.038983,9.768501,5858.557415,-15937.85715,34384.6397
9.94,-0.000223,-0.000055,-0.682672,-0.096336,-0.0034,9.858539,5804.442711,-15892.74559,34525.31266
9.95,-0.000147,-0.000076,-0.687377,-0.146712,0.063845,9.806711,5671.965209,-15914.15614,34322.17028
9.96,-0.000063,-0.000156,-0.692099,-0.032462,0.016034,9.796086,6183.867779,-15971.19963,34253.55673
9.97,0.000136,-0.000121,-0.696819,-0.002923,0.070785,9.816578,6365.082722,-15889.09322,34768.80812
9.98,-0.000015,0.000023,-0.70117,0.018757,-0.012364,9.799554,6328.953185,-16009.25162,34173.28418
9.99,-0.000137,0.000058,-0.70574,-0.044097,-0.005333,9.769731,6408.849192,-16055.84673,34446.71323
10,-0.000138,-0.000082,-0.710066,0.056862,-0.010777,9.844254,6097.242167,-16156.6992,34549.26492
10.01,0.000023,0.000026,-0.714364,0.064157,0.050714,9.77436,6693.520306,-15348.19852,34795.37668
10.02,0.000042,-0.000022,-0.718512,0.082794,-0.092825,9.878083,6550.385705,-15521.85525,34497.5283
10.03,-0.000162,-0.000166,-0.722672,-0.123785,-0.044119,9.80415,6515.037149,-15538.4542,34387.50506
10.04,-0.000161,-0.000055,-0.726818,-0.034689,-0.103628,9.734132,6765.266519,-15793.32872,34528.72972
10.05,-0.000082,-0.000068,-0.730678,0.012708,-0.084017,9.83887,7021.207126,-15620.53047,34538.70759
10.06,-0.00026,0.000048,-0.73451,0.05676,0.066566,9.819967,7330.744213,-15619.72975,34437.36474
10.07,-0.000037,-0.00003,-0.738476,-0.002108,-0.019518,9.942964,7343.791798,-15370.88838,34665.29493
10.08,0.00012,-0.000132,-0.74228,0.059505,0.031369,9.824165,7716.639243,-15869.79343,34758.58222
10.09,-0.000056,0.00002,-0.745941,0.053922,-0.094082,9.849969,7623.20277,-15115.29645,34364.66447
10.1,0.000018,-0.000065,-0.749536,-0.028066,-0.113687,9.861932,7700.89576,-14985.86497,34845.4116
10.11,-0.000098,-0.000087,-0.753056,-0.037418,0.021705,9.771215,8022.842919,-15152.1821,34369.99001
10.12,-0.000052,-0.000131,-0.756327,-0.019539,0.079501,9.823965,7878.67062,-15540.52713,34473.46728
10.13,-0.000051,-0.000149,-0.759705,0.01956,-0.077134,9.852128,7763.422754,-15151.90812,34481.75512
10.14,-0.000105,0.000016,-0.763057,-0.031589,0.023335,9.757496,8224.936044,-14900.04389,34626.2152
10.15,-0.000018,-0.000014,-0.766277,0.018291,0.027264,9.735647,8324.902069,-14909.02248,34860.24398
10.16,-0.000036,0.000149,-0.769508,0.015882,-0.043671,9.869147,8318.071343,-14993.36905,34361.0523
10.17,-0.000034,0.000009,-0.772407,0.018432,0.002886,9.957766,8493.326811,-14679.97345,34892.9579
10.18,-0.000159,0.00016,-0.775265,0.041484,-0.018403,9.850908,8538.677649,-14601.81261,34505.29397
10.19,0.000142,0.000018,-0.778058,0.014414,0.067057,9.758552,8868.569904,-14931.76592,34636.13751
10.2,0.000002,0.000027,-0.780709,0.097221,-0.024557,9.789291,8942.683166,-14987.42535,34504.61235
10.21,-0.000001,-0.000016,-0.783458,-0.035627,-0.014317,9.902374,8740.581683,-14538.10294,34624.70783
10.22,0.000079,0.000043,-0.786136,0.009587,-0.052254,9.800486,9066.371068,-14363.33481,34603.17254
10.23,-0.000095,0,-0.788593,0.012809,0.047858,9.792153,9281.231375,-14464.01484,34686.17932
10.24,-0.000072,-0.000112,-0.790964,0.010155,0.145723,9.801478,9038.025105,-14206.39156,34426.13766
10.25,-0.000002,0.000058,-0.793257,0.00637,-0.058336,9.855132,9336.199747,-14229.57469,34605.8067
10.26,0.000142,-0.000035,-0.795208,-0.022244,0.091842,9.86782,9703.950065,-14279.5935,34609.8245
10.27,0.000048,0.000015,-0.797672,0.040585,-0.024143,9.791403,9398.100411,-14388.54619,34862.90018
10.28,-0.000286,-0.000042,-0.799667,-0.018164,0.004943,9.790895,9698.764082,-13902.03848,34564.04991
10.29,0.000128,-0.000149,-0.801483,-0.025877,0.005637,9.806915,9579.216674,-13789.60384,34707.85747
10.3,-0.000061,0.000035,-0.80375,-0.017936,0.045754,9.859713,10123.53639,-13574.2933,34515.49934
10.31,-0.000027,-0.000059,-0.805259,-0.026774,0.106657,9.826986,10090.49467,-13928.75629,34475.71592
10.32,-0.000031,-0.000128,-0.806939,0.061329,0.093568,9.73812,10032.35828,-13879.50329,34447.52373
10.33,0.000021,0.000023,-0.808547,0.025689,0.046084,9.867629,10310.70009,-13792.3975,34432.63112
10.34,0.000057,-0.000031,-0.810279,0.039929,0.050717,9.733884,10243.38149,-13831.12874,34394.29955
10.35,-0.00016,0.000089,-0.811535,-0.046345,0.029222,9.707527,10464.09961,-13398.38262,34746.17448
10.36,-0.000031,-0.000067,-0.812941,-0.026251,-0.008368,9.826817,10769.89645,-13418.11275,34468.14994
10.37,-0.000037,-0.000058,-0.814263,0.045466,0.012798,9.767232,10668.6628,-13316.05754,34318.74049
10.38,0.000149,-0.000009,-0.815424,-0.046552,0.021178,9.837185,10935.80408,-13212.22711,34503.88271
10.39,-0.000153,-0.000092,-0.816388,0.019519,0.007842,9.813759,10756.00829,-12875.63776,34857.0922
10.4,0.000027,-0.000048,-0.817436,-0.067995,-0.000447,9.845955,10835.74877,-12690.73737,34490.64463
10.41,-0.000066,-0.000125,-0.818227,-0.054893,0.022108,9.842734,11292.72331,-13269.66296,34568.53137
10.42,-0.000007,0.000187,-0.819217,0.116417,-0.002248,9.796049,11453.81968,-12860.93583,34755.69809
10.43,-0.000051,0.000048,-0.819893,-0.05884,-0.053112,9.728191,11404.1975,-12547.84794,34944.00207
10.44,-0.000161,-0.000111,-0.820494,-0.087635,0.035596,9.807918,11293.61455,-12632.48856,34366.59827
10.45,-0.000009,-0.000037,-0.820956,0.016057,-0.077804,9.708085,11191.06959,-12761.71896,34630.03661
10.46,0.000047,-0.000001,-0.821492,-0.086834,0.080969,9.864125,11838.37482,-12349.56946,34596.51181
10.47,-0.000062,0.000019,-0.821775,-0.065478,0.005943,9.816761,11743.19708,-12530.09389,34548.10743
10.48,-0.000034,0.000011,-0.822154,-0.047633,-0.030863,9.855565,11817.67593,-12705.91727,34748.06963
10.49,-0.000163,-0.000116,-0.822239,0.036377,0.045648,9.824707,11877.02379,-12461.58753,34653.44034
10.5,0,0.00011,-0.822391,0.007098,0.02607,9.801053,12144.16247,-11731.73233,34440.6098
10.51,0.000036,0.000087,-0.822309,0.085117,0.012588,9.835596,11997.71941,-11780.25749,34470.3634
10.52,-0.000093,-0.000045,-0.822295,-0.002703,-0.031518,9.806545,12488.67904,-11785.34219,34232.10715
10.53,-0.000125,0.000013,-0.822036,-0.014634,-0.03799,9.849292,12142.12009,-12028.1388,34797.1351
10.54,-0.000081,0.000143,-0.82188,0.100476,0.015943,9.804031,12604.45098,-11571.62348,34291.82164
10.55,-0.000057,-0.000049,-0.821556,-0.033711,-0.07079,9.839452,12617.37734,-12285.19702,34556.87803
10.56,-0.000003,-0.000027,-0.820899,0.030256,-0.03744,9.813406,12636.37819,-11259.58419,34642.67682
10.57,0.000014,0.000018,-0.820522,-0.040164,0.07214,9.815202,12543.60651,-11388.75376,34312.33264
10.58,-0.000163,-0.000036,-0.819946,0.023938,0.086477,9.699448,12754.99825,-11402.17839,35111.76376
10.59,0.000044,-0.000031,-0.819006,0.022461,0.015432,9.795355,12781.86316,-11268.97411,34557.93313
10.6,0.000025,0.000044,-0.818321,0.003364,0.063973,9.777356,13395.7738,-11261.87138,34789.10532
10.61,-0.000021,0.000028,-0.81736,-0.029503,0.087947,9.860496,13291.63046,-11122.21793,34462.37844
10.62,-0.000101,0.000014,-0.816222,0.02678,0.042767,9.814795,13578.22763,-11244.7799,34254.54986
10.63,-0.000047,-0.000051,-0.815432,-0.01153,-0.004151,9.826079,12865.87445,-10914.94853,34541.78026
10.64,-0.000166,0.000075,-0.814197,-0.019664,-0.075432,9.802626,13152.931,-10557.47589,34580.67756
10.65,-0.000013,0.000132,-0.812725,0.01719,-0.003269,9.843921,13581.79484,-10559.9905,34506.53772
10.66,-0.000117,0.000063,-0.811542,0.017819,0.050983,9.817114,13407.15109,-10181.87732,34565.28031
10.67,-0.000005,0.000013,-0.810162,-0.004976,0.031852,9.854498,13838.55754,-10470.59833,34557.65172
10.68,0.000099,0.000025,-0.808605,-0.018183,-0.038663,9.876835,13694.67251,-10403.57958,34442.043
10.69,0.00007,0.00005,-0.806981,-0.022228,0.02193,9.787968,13447.05532,-10257.02824,34966.57658
10.7,-0.000011,0.000125,-0.805274,0.014406,0.072075,9.893841,13884.65872,-10242.05786,34679.7058
10.71,-0.000047,-0.000103,-0.803558,-0.060722,-0.067432,9.646215,14175.33193,-9464.0375,34661.82093
10.72,-0.000131,-0.000019,-0.801627,0.032644,0.080187,9.823755,14215.3327,-9703.41097,34375.57349
10.73,-0.000218,-0.000027,-0.799626,-0.010856,0.044071,9.764941,14157.11787,-9678.707644,34290.25204
10.74,-0.000025,-0.000112,-0.797517,0.035844,0.069746,9.871694,14538.34693,-9557.74309,34353.23934
10.75,-0.0001,-0.000136,-0.795581,0.038269,-0.02134,9.794766,14183.03155,-9204.174157,34501.6523
10.76,-0.00004,0.000057,-0.793155,-0.041427,0.094753,9.872023,14192.17818,-9023.315047,34388.63605
10.77,-0.000021,-0.000133,-0.790998,0.00045,-0.000017,9.822489,14564.48826,-9160.006757,34430.98052
10.78,-0.000118,-0.000044,-0.788693,-0.02903,0.028784,9.835199,14690.63895,-8910.45489,34704.56313
10.79,-0.00003,0.000028,-0.786062,0.024552,0.005781,9.687543,14559.17894,-8973.555658,33894.75422
10.8,0.000001,-0.00011,-0.7836,-0.006305,-0.065901,9.728017,14556.85586,-8885.461288,34733.74541
10.81,-0.000095,0.000072,-0.780722,0.113162,-0.021307,9.801023,15171.1428,-8702.03617,35042.75522
10.82,-0.000079,0.000076,-0.778093,-0.012004,-0.038963,9.88959,14740.3522,-8372.853743,34786.86976
10.83,0.000093,0.000013,-0.775272,-0.08787,0.026186,9.781178,14469.5606,-8131.069648,34325.71486
10.84,0.00003,-0.000096,-0.772397,0.064935,0.04409,9.813851,14863.49029,-8547.397394,34410.81046
10.85,-0.000166,-0.000006,-0.769317,-0.071087,0.040984,9.857748,14713.93419,-8331.347827,34842.40656
10.86,-0.000046,-0.000064,-0.766101,0.034744,-0.012003,9.840789,14779.68869,-7927.286524,34638.82139
10.87,-0.000076,-0.000092,-0.762947,-0.035753,0.014411,9.827755,15231.28301,-7926.158647,34720.84172
10.88,0.000085,0.000001,-0.759953,-0.009193,-0.046443,9.798581,15289.73569,-8116.041486,34248.81237
10.89,-0.000092,0.000025,-0.756462,-0.041049,-0.056643,9.861071,15402.82661,-7690.106393,34877.07111
10.9,0.000096,-0.000148,-0.752984,-0.005532,-0.023385,9.783955,15271.15133,-7716.199967,34362.97449
10.91,-0.000094,0.000087,-0.749547,0.023216,-0.013981,9.774555,14928.41228,-7502.791766,34851.57805
10.92,0.00005,-0.000085,-0.746078,0.015174,0.008841,9.764887,15338.44581,-7287.401768,34713.33122
10.93,-0.000136,-0.000082,-0.742377,-0.051004,0.065794,9.79549,15103.65296,-7276.865621,34323.8524
10.94,0.000065,0.000088,-0.738516,0.061056,0.03116,9.805657,15516.61416,-7103.120996,34493.36713
10.95,-0.00013,-0.000039,-0.73477,-0.010074,0.081895,9.777485,15519.03409,-6886.530796,34959.90456
10.96,0.000087,-0.000001,-0.730757,-0.017488,-0.038909,9.801453,15385.32597,-7069.641158,34398.52042
10.97,-0.000074,-0.000204,-0.726877,-0.044512,0.007391,9.747244,15419.39075,-6780.269142,34424.89205
10.98,-0.000137,0.000004,-0.722731,0.027272,0.018249,9.81948,15909.46067,-6533.444353,34524.4662
10.99,-0.000109,-0.000063,-0.718454,-0.028056,0.064709,9.907808,15518.39443,-6639.342365,34540.02848
11,-0.000123,-0.000109,-0.714382,-0.004891,-0.036424,9.840612,15644.39961,-6289.805213,34515.67681
11.01,-0.0001,-0.000066,-0.71001,-0.008869,0.008575,9.840733,15606.14953,-6308.782156,34249.98085
11.02,0.000112,-0.000184,-0.705673,-0.065413,0.0372,9.757384,16085.90075,-6363.139099,34832.44782
11.03,-0.000036,-0.000036,-0.701226,-0.060029,-0.017631,9.880734,15928.52349,-6507.784437,34413.95444
11.04,-0.000069,0.000059,-0.696712,-0.029713,0.024289,9.762945,16011.13239,-6202.155901,34500.68201
11.05,-0.000051,-0.000029,-0.692047,0.032156,0.017099,9.865673,16097.01294,-6285.521615,34443.06915
11.06,-0.000054,0.000059,-0.687367,0.010168,0.001653,9.716588,15811.39594,-5876.720198,34674.26046
11.07,-0.000024,-0.000033,-0.682687,0.016867,0.04025,9.818542,16040.78584,-5976.548825,34433.4842
11.08,-0.000112,-0.00012,-0.677742,0.010261,0.028992,9.851527,16002.81228,-5589.514898,34640.99355
11.09,-0.000102,-0.000121,-0.672822,-0.042915,-0.002335,9.829876,16209.68303,-5423.017005,34351.42867
11.1,0.000006,-0.000182,-0.667707,0.013828,-0.045914,9.710944,15956.43072,-5749.851357,34695.9341
11.11,-0.000037,-0.000038,-0.662698,0.016977,0.036656,9.891147,16250.30162,-5534.116629,34670.1896
11.12,-0.000033,-0.000081,-0.657465,0.021983,-0.041667,9.830478,16162.75182,-5343.990519,34346.01667
11.13,-0.000133,-0.000037,-0.652375,-0.004492,-0.032303,9.737788,16313.9309,-5065.85734,34577.01745
11.14,-0.000133,-0.000038,-0.647137,-0.088668,-0.0333,9.787893,16265.37955,-5065.947257,34512.20266
11.15,0.00017,-0.000107,-0.641825,0.004101,0.001926,9.819719,16273.79267,-5444.029991,34436.18202
11.16,0.000018,-0.000022,-0.636505,0.095205,-0.002127,9.876028,16278.61403,-4767.241677,34451.14777
11.17,-0.000004,-0.000019,-0.630872,-0.037391,-0.034705,9.782529,16352.31849,-4801.769681,34356.14596
11.18,0.000059,0.00006,-0.625316,-0.087619,0.082622,9.820867,16105.11293,-4739.701962,34546.12868
11.19,-0.000012,-0.000125,-0.619735,0.036524,0.086168,9.830619,16500.59992,-4285.717999,34830.42738
11.2,-0.00002,-0.000064,-0.614019,0.081303,-0.115579,9.871145,16492.70942,-4370.256033,34444.30336
11.21,-0.000111,0.000105,-0.608077,0.015814,-0.026391,9.861855,16525.89674,-4498.638841,34440.0748
11.22,-0.000073,0.000006,-0.602456,0.002326,-0.033694,9.712291,16555.75242,-4081.026336,34406.89015
11.23,0.000071,0.000009,-0.596533,0.088871,-0.128266,9.811808,16467.72825,-3927.850358,34487.64294
11.24,-0.000059,-0.000018,-0.590665,0.079777,0.033175,9.777285,16646.80229,-3829.624766,34555.87836
11.25,0.00002,-0.000091,-0.584505,-0.012427,-0.029519,9.820557,16543.41015,-3660.254641,34466.59095
11.26,-0.000028,0.000067,-0.578463,-0.002971,-0.063072,9.735313,16700.7634,-3991.231727,34871.35897
11.27,0.00005,-0.000109,-0.572255,0.057247,-0.062517,9.751858,16565.38168,-3402.401012,34467.59773
11.28,-0.000059,-0.000012,-0.566086,0.115868,-0.04104,9.742352,16629.32918,-3888.99412,34312.44502
11.29,0.000042,-0.000205,-0.559785,-0.047906,0.038305,9.770547,16714.24705,-3358.880926,34404.45
11.3,-0.00017,0.000077,-0.553646,-0.006789,-0.114667,9.776727,16708.27831,-3267.490922,34520.97826
11.31,-0.000127,-0.000175,-0.54693,0.001652,0.002277,9.880201,16615.0498,-3323.232575,34512.41414
11.32,-0.000152,-0.000019,-0.540659,0.024935,-0.143973,9.726083,16685.60087,-3108.057509,34164.25415
11.33,-0.000197,-0.000058,-0.534035,-0.04472,-0.01527,9.809331,17082.92702,-3120.895886,34314.85034
11.34,-0.000056,0.000053,-0.527546,0.030571,-0.084711,9.695609,16879.43572,-3059.709931,34753.28057
11.35,-0.000039,-0.000062,-0.520848,0.038575,-0.050885,9.688978,16974.30229,-3010.437972,34655.60057
11.36,0.000126,0.000003,-0.514168,-0.048683,-0.023357,9.745761,17111.38555,-2609.478431,34635.69987
11.37,-0.000093,-0.000095,-0.507307,-0.059939,0.049185,9.750889,16853.29008,-2953.105717,34625.67844
11.38,-0.000137,-0.000108,-0.500638,0.013771,0.009297,9.788095,16988.75435,-2688.284024,34159.17754
11.39,-0.000077,0.000142,-0.493976,0.116356,-0.068945,9.9349,16796.50053,-2755.863469,34564.13216
11.4,-0.000008,0.000034,-0.486953,-0.049262,-0.014892,9.821147,16842.9208,-2578.725991,34502.83465
11.41,-0.000096,0.000009,-0.479745,0.053963,0.033556,9.788568,17043.99742,-2647.57141,34580.85496
11.42,-0.00012,-0.000166,-0.472782,-0.018787,0.057464,9.882828,16750.92002,-2272.326806,34608.98939
11.43,0.000094,-0.000058,-0.465987,-0.027903,0.060023,9.834605,16952.45512,-2149.011603,34656.862
11.44,0.000087,-0.000046,-0.458573,0.011681,-0.056093,9.743431,17156.68985,-2503.522859,34553.94743
11.45,-0.000043,-0.000061,-0.451537,0.020623,-0.139732,9.781621,16802.84391,-1902.000475,34640.87619
11.46,0.000089,0.000096,-0.44446,0.020408,-0.08426,9.888064,16895.2261,-1913.279045,34521.71997
11.47,-0.000121,0.000126,-0.437034,0.082252,-0.053871,9.801082,16986.92703,-2065.378512,34759.564
11.48,-0.000158,-0.000028,-0.429691,-0.007047,-0.027914,9.782292,16979.72067,-1689.495132,34398.97511
11.49,-0.000048,-0.000071,-0.422342,0.023496,0.082637,9.811079,16998.24394,-2042.482939,34715.20598
11.5,-0.000079,0,-0.414972,0.00477,0.006181,9.772477,16959.25783,-1992.389052,34699.40378
11.51,-0.000065,-0.000041,-0.407329,0.030802,-0.025161,9.757818,17161.8447,-1731.195678,34422.20069
11.52,-0.000007,-0.000038,-0.399892,0.03222,-0.09361,9.781798,17056.40371,-1351.53748,34374.34318
11.53,-0.000004,0.000066,-0.392347,-0.020062,-0.007059,9.730134,16683.55177,-1600.489334,34291.67786
11.54,0.000117,0.000089,-0.384805,-0.047698,-0.007604,9.837208,16696.53024,-1477.296131,34631.66615
11.55,-0.000076,0.000048,-0.377123,-0.006009,-0.010655,9.765369,17173.85551,-1392.045013,34672.1361
11.56,-0.000048,-0.000158,-0.369654,0.000749,-0.13937,9.839373,17040.9917,-1112.362162,34488.44919
11.57,-0.000009,0.000039,-0.36171,0.047942,-0.001138,9.758722,16903.27496,-1046.116335,34678.32536
11.58,-0.000152,0.000062,-0.354072,0.066289,-0.03404,9.874265,17020.09444,-1247.691502,34448.11581
11.59,-0.000006,0.000008,-0.346303,-0.013685,-0.038151,9.796561,16882.64616,-1555.213486,34219.18838
11.6,-0.000091,-0.00021,-0.338482,-0.034268,-0.008513,9.832026,17132.03088,-1244.707651,34410.55169
11.61,-0.000197,0.000009,-0.330528,-0.013026,-0.022926,9.806296,16942.0782,-988.480785,34820.51274
11.62,0.00004,0.000002,-0.322685,0.01934,0.000012,9.83433,17040.83389,-1228.646416,34442.48849
11.63,-0.000009,-0.000063,-0.314636,0.028828,0.014284,9.842947,17001.95294,-869.214482,34572.22902
11.64,-0.000012,-0.000115,-0.306715,0.000651,0.056531,9.827512,17196.32907,-1193.798579,34613.37095
11.65,-0.000035,-0.000056,-0.298629,0.041561,-0.009593,9.737082,17386.71937,-812.898323,34493.94336
11.66,0.00011,-0.000061,-0.290697,-0.022108,0.001986,9.825695,17122.99072,-655.341155,34612.57021
11.67,-0.000236,-0.00004,-0.282632,-0.001702,0.072839,9.743185,17263.78803,-1087.473323,34608.60669
11.68,-0.000228,-0.000004,-0.274439,-0.087415,-0.00895,9.77381,17114.76666,-669.747646,34547.94014
11.69,-0.000104,-0.000061,-0.266441,0.001558,0.032561,9.94133,17045.74223,-631.416278,34320.464
11.7,0.000027,-0.000161,-0.258221,-0.064843,-0.052871,9.804662,16964.79616,-703.483789,34618.12047
11.71,0.000131,-0.000024,-0.249962,-0.07272,-0.037416,9.87078,17062.08468,-748.345231,34720.87678
11.72,-0.000052,-0.000131,-0.241787,-0.002895,-0.00132,9.861984,17124.68786,-551.350006,34639.85328
11.73,-0.000004,-0.000118,-0.233509,-0.084204,0.006045,9.805074,17105.322,-298.311364,34524.70519
11.74,0.000069,0.000065,-0.225406,0.01324,-0.048956,9.786272,16886.92207,-416.507072,34651.40555
11.75,-0.000125,-0.00017,-0.216879,-0.004978,0.036162,9.771764,17230.9538,-344.114226,34533.3752
11.76,0.000014,0.000033,-0.20873,0.030233,-0.104331,9.828317,17369.79841,-533.176562,34427.92522
11.77,-0.000141,-0.000022,-0.200302,0.038085,-0.044582,9.793097,17208.86692,-515.305686,34777.91429
11.78,-0.000114,-0.000016,-0.19189,-0.000122,0.014212,9.866287,16913.53457,-315.894056,34587.84979
11.79,-0.00002,-0.000119,-0.183746,0.009341,-0.011042,9.797841,16991.55092,-657.630554,34605.54255
11.8,-0.000062,-0.000014,-0.175179,0.013337,0.038177,9.819968,17132.02374,-294.020058,34461.83688
11.81,-0.000077,-0.000089,-0.166669,-0.026792,-0.016445,9.768855,16838.77269,-387.991884,34214.7159
11.82,-0.000044,-0.000018,-0.158373,-0.042488,-0.02377,9.779402,17404.30215,-300.92973,34783.14387
11.83,-0.000094,-0.000014,-0.149916,0.03744,-0.058108,9.810917,17057.36025,72.36711,34442.55936
11.84,-0.000149,-0.000057,-0.141247,-0.05716,0.038654,9.82221,16948.70197,-334.833764,34571.18643
11.85,-0.000023,0.000099,-0.132871,0.06151,0.026603,9.757612,16915.84968,-428.898638,34834.78023
11.86,-0.000067,-0.00015,-0.124403,0.001867,-0.030532,9.78208,17333.50698,-266.010078,34724.3342
11.87,0.000086,0,-0.115768,-0.049664,-0.014922,9.811927,16646.68676,-80.669597,34928.43474
11.88,0.000022,-0.00003,-0.107317,0.010336,0.120558,9.799583,17457.41052,42.753371,34769.33765
11.89,-0.000029,0.00003,-0.098715,0.00426,-0.004363,9.795164,17133.49187,201.72677,34486.80827
11.9,0.000003,-0.000015,-0.090266,-0.014558,0.002749,9.797931,16644.66678,139.592033,34582.91474
11.91,-0.000062,-0.000111,-0.081546,0.035587,0.020768,9.764876,17094.49902,65.191916,34685.89247
11.92,-0.000223,-0.000048,-0.07285,0.000203,0.014978,9.794281,16836.91733,-15.54098,34429.4592
11.93,-0.000069,-0.000128,-0.064478,-0.011029,-0.004466,9.837022,17035.54853,186.128116,34545.15677
11.94,0.000073,-0.000043,-0.055833,0.008642,-0.025914,9.805244,16975.35266,2.36042,34533.19926
11.95,-0.000031,-0.000061,-0.047016,0.059641,-0.045873,9.839127,17101.16685,149.612108,34563.07558
11.96,-0.000033,-0.000076,-0.038732,-0.011741,0.178792,9.837835,17012.30022,-43.608362,34366.18688
11.97,-0.000006,0.000007,-0.030017,0.002711,-0.005068,9.734527,17356.58601,121.16239,34210.33238
11.98,-0.000027,-0.000154,-0.02143,-0.024463,0.096606,9.82488,17067.54422,238.53551,34254.42991
11.99,-0.000066,-0.000054,-0.012994,-0.013646,-0.000249,9.80976,17018.17852,342.991275,34634.16221
12,-0.000089,-0.000092,-0.004256,-0.045406,0.005313,9.832048,17237.08843,-175.509255,34854.74073
12.01,0.00414,-0.000024,0.000064,-0.070613,-0.010832,9.67662,17194.88668,269.00884,34379.25269
12.02,0.012782,-0.000083,-0.000021,-0.080535,0.041857,9.866451,16987.98269,-160.30215,34630.44624
12.03,0.021569,-0.000249,0.000024,0.089203,-0.057817,9.803589,16911.05933,36.786929,34844.15747
12.04,0.029954,-0.000066,0.000128,-0.015831,0.057957,9.823114,17247.74779,-85.270646,34656.83347
12.05,0.038649,-0.000017,-0.00002,0.004176,0.039598,9.785973,16909.75704,196.569488,34340.98981
12.06,0.047474,0.000051,0.000152,0.046777,-0.000707,9.860313,17227.36313,250.200111,34314.84426
12.07,0.055785,-0.000125,0.000148,0.00914,0.032059,9.753447,17272.08749,336.290142,34857.56572
12.08,0.064473,-0.000051,0.000083,-0.073225,-0.047539,9.831096,17365.52432,238.75613,34699.82269
12.09,0.072963,0.000039,0.000055,-0.102163,0.099618,9.792178,16981.0553,496.718928,34592.20698
12.1,0.081689,-0.000087,0.000098,-0.063779,0.058989,9.748493,17291.57475,291.298379,34578.98053
12.11,0.090151,0.000055,0.000152,0.002143,0.038593,9.86465,16896.2027,325.307147,34604.27249
12.12,0.098848,0.000016,0.000109,0.043108,0.105676,9.785506,16927.11835,531.999195,34646.87103
12.13,0.107077,0.000044,0.00003,0.059704,0.06815,9.812977,17023.7222,178.326053,34826.6877
12.14,0.115855,-0.000053,-0.000068,0.021303,0.095881,9.743729,17032.9282,247.080151,34212.7132
12.15,0.12432,0.000029,0.000177,0.030954,0.01955,9.829522,17063.13642,245.336592,34752.38024
12.16,0.132819,-0.000108,0.00018,-0.003104,0.111667,9.755047,17361.47173,611.376643,34288.58517
12.17,0.141289,0.000152,0.000058,0.047636,0.114843,9.847193,17169.00352,729.548715,34532.21998
12.18,0.149765,0.000057,0.000201,-0.03458,0.10255,9.809945,17075.43085,498.076994,34303.34518
12.19,0.158178,0.000107,0.000029,0.049058,0.08943,9.778904,17035.90049,530.122322,34616.96896
12.2,0.166875,-0.000062,-0.000084,-0.023744,0.15564,9.784435,17127.10612,625.991604,34500.71155
12.21,0.175214,0.000052,0.000237,0.051334,0.219368,9.806961,17476.62596,924.342623,34719.43888
12.22,0.183726,0.000032,0.000033,0.040295,0.252663,9.776189,17157.55263,1025.771419,34424.48976
12.23,0.191915,-0.000054,-0.000019,-0.034368,0.255463,9.90607,17264.64522,958.387176,34552.57174
12.24,0.200301,-0.000251,0.000069,-0.112499,0.212608,9.841855,16786.12395,596.012468,34815.02864
12.25,0.208665,0.000195,0.00012,-0.038081,0.303956,9.814849,16902.82294,1090.025567,34537.17374
12.26,0.216944,0.000021,-0.000053,-0.059387,0.261878,9.82127,17033.35357,1091.611238,34816.69567
12.27,0.225229,-0.000192,0.000179,-0.042381,0.33399,9.817684,17259.15303,1351.358117,34371.41737
12.28,0.233604,-0.000131,0.000048,-0.01427,0.347511,9.784992,17002.10801,1415.015071,34563.34451
12.29,0.241881,0.000015,0.000087,0.010645,0.305171,9.868591,17054.29702,991.728817,34474.73694
12.3,0.249942,-0.000084,0.000062,-0.012389,0.432377,9.90241,17012.93197,1456.552275,34534.63201
12.31,0.258288,-0.000101,-0.000044,0.075393,0.401611,9.806875,16779.6663,1076.285108,34753.944
12.32,0.26647,-0.00011,0.000148,-0.001822,0.443375,9.758961,16846.61913,1248.994843,34295.05626
12.33,0.274526,0.000048,0.000206,-0.086026,0.470769,9.799352,16993.38428,1687.38001,34527.13214
12.34,0.282668,0.000039,-0.000026,0.073381,0.569398,9.730589,16977.68087,1633.176553,34374.91184
12.35,0.29062,0.000028,0.000188,-0.044023,0.54856,9.85053,17049.75529,1688.789262,34540.8093
12.36,0.298843,0.000173,0.000081,0.006291,0.543747,9.704768,16901.03485,1844.213884,34562.06937
12.37,0.306747,0.000059,0.000055,0.109415,0.537622,9.817997,16921.72815,1933.955652,34605.31818
12.38,0.314698,-0.00012,0.00014,0.016639,0.559009,9.830077,17049.97867,2072.42088,34459.75882
12.39,0.32255,0.000016,-0.00007,0.069972,0.631079,9.794177,17113.95098,1744.217462,34543.68882
12.4,0.330643,-0.000118,0.000127,0.031754,0.712587,9.826413,17050.98653,2697.628324,34193.9992
